Device	Device	Device	Device	Device	Device	Device	Device	Device	Device	Device	Device	Device	Device	Device	Device	Device	Device	Device	Device	Device	
Low Noise Accelerometer X	Low Noise Accelerometer X	Low Noise Accelerometer Z	Low Noise Accelerometer Z	Low Noise Accelerometer Y	Low Noise Accelerometer Y	Event_Marker	Timestamp	Timestamp	Magnetometer Z	Magnetometer Z	Magnetometer X	Magnetometer X	Magnetometer Y	Magnetometer Y	Gyroscope Y	Gyroscope Y	Gyroscope Z	Gyroscope Z	Gyroscope X	Gyroscope X	
CAL	UNCAL	UNCAL	CAL	CAL	UNCAL	CAL	CAL	UNCAL	CAL	UNCAL	CAL	UNCAL	CAL	UNCAL	UNCAL	CAL	CAL	UNCAL	CAL	UNCAL	
m/(s^2)	no units	no units	m/(s^2)	m/(s^2)	no units	no units	ms	no units	local_flux	no units	local_flux	no units	local_flux	no units	no units	deg/s	deg/s	no units	deg/s	no units	
-0.041991120924096195	2043.0	1248.0	10.086602193304666	-0.03965172276483436	2094.0	0.0	1117.67578125	36624.0	-0.24	425.0	1.3016194331983806	233.0	-0.03036437246963563	-178.0	-42.0	0.12234286588163329	-0.7381041710807499	38.0	-0.5137490024289294	-147.0	
-0.053772792930529376	2042.0	1247.0	10.098911183137538	-0.02747516691715693	2095.0	0.0	1137.20703125	37264.0	-0.24	425.0	1.3016194331983806	233.0	-0.03036437246963563	-178.0	-40.0	0.030585716470408322	-0.7802695255500522	41.0	-0.5448596232898723	-141.0	
-0.07770184395342135	2040.0	1248.0	10.086958461800725	-0.0038571263119534516	2097.0	0.0	1156.73828125	37904.0	-0.24	425.0	1.2995951417004048	232.0	-0.022267206477732795	-182.0	-43.0	0.29056430646887904	-0.6219400988697464	30.0	-0.4972428780486945	-158.0	
-0.041991120924096195	2043.0	1248.0	10.086602193304666	-0.03965172276483436	2094.0	0.0	1176.26953125	38544.0	-0.24	425.0	1.2995951417004048	232.0	-0.022267206477732795	-182.0	-53.0	0.3211500229392874	-0.8246469407124214	43.0	-0.3458251098858721	-160.0	
-0.053771588594191136	2043.0	1247.0	10.099031616771363	-0.03952093897220141	2095.0	0.0	1195.80078125	39184.0	-0.24	425.0	1.2995951417004048	232.0	-0.022267206477732795	-182.0	-45.0	0.3058571647040832	-0.6843814542759243	34.0	-0.4671783242865064	-159.0	
-0.06567516293729954	2042.0	1247.0	10.099150372936714	-0.027589406821241114	2096.0	0.0	1215.33203125	39824.0	-0.255	419.0	1.2995951417004048	232.0	-0.03441295546558704	-176.0	-34.0	0.21410001529285827	-0.7713080757436566	40.0	-0.6368369107405577	-153.0	
-0.07770063961708311	2041.0	1248.0	10.087078895434548	-0.01590289836699793	2097.0	0.0	1234.86328125	40464.0	-0.255	419.0	1.2995951417004048	232.0	-0.03441295546558704	-176.0	-53.0	0.09175714941122497	-0.8308528540647505	44.0	-0.3458871690193954	-145.0	
-0.053772792930529376	2042.0	1247.0	10.098911183137538	-0.02747516691715693	2095.0	0.0	1254.39453125	41104.0	-0.255	419.0	1.2995951417004048	232.0	-0.03441295546558704	-176.0	-46.0	0.3517357394096957	-0.6556084216344203	32.0	-0.45154611030196645	-162.0	
-0.0656739586009613	2043.0	1247.0	10.099270806570539	-0.03963517887628559	2096.0	0.0	1273.92578125	41744.0	-0.255	419.0	1.2995951417004048	232.0	-0.03441295546558704	-176.0	-58.0	0.42820003058571654	-0.8143149495155175	42.0	-0.2689993716832786	-167.0	
-0.053772792930529376	2042.0	1247.0	10.098911183137538	-0.02747516691715693	2095.0	0.0	1293.45703125	42384.0	-0.2675	414.0	1.2975708502024292	231.0	-0.04453441295546559	-171.0	-46.0	0.3211500229392874	-0.5928622720514144	28.0	-0.4509186488061364	-160.0	
-0.06567757160997602	2040.0	1247.0	10.098909505669067	-0.0034978627111521554	2096.0	0.0	1312.98828125	43024.0	-0.2675	414.0	1.2975708502024292	231.0	-0.04453441295546559	-171.0	-43.0	0.29056430646887904	-0.9449350259575637	51.0	-0.5004728273195727	-158.0	
-0.06567516293729954	2042.0	1247.0	10.099150372936714	-0.027589406821241114	2096.0	0.0	1332.51953125	43664.0	-0.2675	414.0	1.2975708502024292	231.0	-0.04453441295546559	-171.0	-41.0	0.22939287352806242	-0.788374446176877	41.0	-0.5295961888380156	-154.0	
-0.07757632860773143	2043.0	1247.0	10.099509996369715	-0.03974941878036978	2097.0	0.0	1352.05078125	44304.0	-0.245	423.0	1.3016194331983806	233.0	-0.032388663967611336	-177.0	-54.0	0.12234286588163329	-0.6938031925632158	35.0	-0.3291721887462552	-147.0	
-0.07769702660806839	2044.0	1248.0	10.087440196336019	-0.05204021453213137	2097.0	0.0	1371.58203125	44944.0	-0.245	423.0	1.3016194331983806	233.0	-0.032388663967611336	-177.0	-49.0	0.3211500229392874	-0.7932718011104827	41.0	-0.4068892931223524	-160.0	
-0.07770063961708311	2041.0	1248.0	10.087078895434548	-0.01590289836699793	2097.0	0.0	1391.11328125	45584.0	-0.245	423.0	1.3016194331983806	233.0	-0.032388663967611336	-177.0	-51.0	0.29056430646887904	-0.900020329465502	48.0	-0.3772678110896528	-158.0	
-0.07757753294406967	2042.0	1247.0	10.09938956273589	-0.027703646725325298	2097.0	0.0	1410.64453125	46224.0	-0.245	423.0	1.3016194331983806	233.0	-0.032388663967611336	-177.0	-42.0	0.13763572411683744	-0.9694264864504254	53.0	-0.5160622255826262	-148.0	
-0.04187042292375924	2042.0	1247.0	10.098671993338362	-0.027360927013072772	2094.0	0.0	1430.17578125	46864.0	-0.2475	422.0	1.3036437246963564	234.0	-0.04048582995951417	-173.0	-42.0	0.22939287352806242	-0.8346700081116256	44.0	-0.5147146607992382	-154.0	
-0.053773997266867615	2041.0	1247.0	10.098790749503715	-0.01542939486211245	2095.0	0.0	1449.70703125	47504.0	-0.2475	422.0	1.3036437246963564	234.0	-0.04048582995951417	-173.0	-36.0	0.565835754702554	-0.8164443791324418	42.0	-0.6065993064581958	-176.0	
-0.06567636727363778	2041.0	1247.0	10.099029939302891	-0.015543634766196635	2096.0	0.0	1469.23828125	48144.0	-0.2475	422.0	1.3036437246963564	234.0	-0.04048582995951417	-173.0	-50.0	0.25997858999847073	-0.7448364855066308	38.0	-0.391060456308189	-156.0	
-0.05389228659452809	2044.0	1248.0	10.086961816737666	-0.051811734723963054	2095.0	0.0	1488.76953125	48784.0	-0.27	413.0	1.305668016194332	235.0	-0.04453441295546559	-171.0	-35.0	0.22939287352806242	-0.8335960016562024	44.0	-0.6221153063415583	-154.0	
-0.053771588594191136	2043.0	1247.0	10.099031616771363	-0.03952093897220141	2095.0	0.0	1508.30078125	49424.0	-0.27	413.0	1.305668016194332	235.0	-0.04453441295546559	-171.0	-37.0	0.18351429882244993	-0.8320679011511909	44.0	-0.5914110580202584	-151.0	
-0.07757873728040791	2041.0	1247.0	10.099269129102067	-0.01565787467028082	2097.0	0.0	1527.83203125	50064.0	-0.27	413.0	1.305668016194332	235.0	-0.04453441295546559	-171.0	-53.0	0.3058571647040832	-0.5471824929016291	25.0	-0.34305046540776424	-159.0	
-0.07757994161674615	2040.0	1247.0	10.099148695468244	-0.00361210261523634	2097.0	0.0	1547.36328125	50704.0	-0.24	425.0	1.3157894736842106	240.0	-0.02834008097165992	-179.0	-27.0	0.3517357394096957	-0.8987846342747038	48.0	-0.7455230619327424	-162.0	
-0.053772792930529376	2042.0	1247.0	10.098911183137538	-0.02747516691715693	2095.0	0.0	1566.89453125	51344.0	-0.24	425.0	1.3157894736842106	240.0	-0.02834008097165992	-179.0	-51.0	0.1529285823520416	-0.8945154509886762	48.0	-0.3772127623048845	-149.0	
-0.041991120924096195	2043.0	1248.0	10.086602193304666	-0.03965172276483436	2094.0	0.0	1586.42578125	51984.0	-0.24	425.0	1.3157894736842106	240.0	-0.02834008097165992	-179.0	-50.0	0.3211500229392874	-0.7934252306041145	41.0	-0.3915463437591638	-160.0	
-0.053772792930529376	2042.0	1247.0	10.098911183137538	-0.02747516691715693	2095.0	0.0	1605.95703125	52624.0	-0.24	425.0	1.3157894736842106	240.0	-0.02834008097165992	-179.0	-53.0	0.22939287352806242	-0.744073467659343	38.0	-0.34501937515534137	-154.0	
-0.08936040928684111	2040.0	1246.0	10.111578118934938	-0.0034813188226033576	2098.0	0.0	1625.48828125	53264.0	-0.2425	424.0	1.3076923076923077	236.0	-0.02631578947368421	-180.0	-40.0	0.1529285823520416	-0.723639907607964	37.0	-0.5442933271104514	-149.0	
-0.08948110728717805	2041.0	1247.0	10.099508318901243	-0.015772114574364976	2098.0	0.0	1645.01953125	53904.0	-0.2425	424.0	1.3076923076923077	236.0	-0.02631578947368421	-180.0	-47.0	0.29056430646887904	-0.8378837682361521	44.0	-0.4380243801098589	-158.0	
-0.041869218587421	2043.0	1247.0	10.098792426972185	-0.03940669906811725	2094.0	0.0	1664.55078125	54544.0	-0.2425	424.0	1.3076923076923077	236.0	-0.02631578947368421	-180.0	-35.0	0.16822144058724578	-0.9388143646957745	51.0	-0.6231674899719539	-150.0	
-0.06579706527397473	2042.0	1248.0	10.086960139269195	-0.027834430517958225	2096.0	0.0	1684.08203125	55184.0	-0.2725	412.0	1.3097165991902835	237.0	-0.020242914979757085	-183.0	-39.0	0.3058571647040832	-0.6680801665004273	33.0	-0.5590822133575009	-159.0	
-0.0655544649369626	2041.0	1246.0	10.111220172970409	-0.015298611069479495	2096.0	0.0	1703.61328125	55824.0	-0.2725	412.0	1.3097165991902835	237.0	-0.020242914979757085	-183.0	-56.0	0.10705000764642914	-0.8780669281508547	47.0	-0.30032585878588175	-146.0	
-0.04187162726009748	2041.0	1247.0	10.09855155970454	-0.015315154958028293	2094.0	0.0	1723.14453125	56464.0	-0.2725	412.0	1.3097165991902835	237.0	-0.020242914979757085	-183.0	-52.0	0.10705000764642914	-0.8005496561077993	42.0	-0.3609286206979508	-146.0	
-0.04174852058708406	2042.0	1246.0	10.11086222700588	-0.027115903316355633	2094.0	0.0	1742.67578125	57104.0	-0.2725	412.0	1.3097165991902835	237.0	-0.020242914979757085	-183.0	-43.0	0.25997858999847073	-0.7591431898649131	39.0	-0.49861490895864613	-156.0	
-0.07757753294406967	2042.0	1247.0	10.09938956273589	-0.027703646725325298	2097.0	0.0	1762.20703125	57744.0	-0.25	421.0	1.311740890688259	238.0	0.0	-193.0	-45.0	0.030585716470408322	-0.7810366730182117	41.0	-0.46814487647392933	-141.0	
-0.07769943528074487	2042.0	1248.0	10.08719932906837	-0.02794867042204241	2097.0	0.0	1781.73828125	58384.0	-0.25	421.0	1.311740890688259	238.0	0.0	-193.0	-43.0	0.18351429882244993	-0.7407042132307489	38.0	-0.49843051919230447	-151.0	
-0.0657958609376365	2043.0	1248.0	10.08708057290302	-0.039880202573002704	2096.0	0.0	1801.26953125	59024.0	-0.25	421.0	1.311740890688259	238.0	0.0	-193.0	-42.0	0.0	-0.763972367395427	40.0	-0.5140076843920762	-139.0	
-0.041991120924096195	2043.0	1248.0	10.086602193304666	-0.03965172276483436	2094.0	0.0	1820.80078125	59664.0	-0.23750000000000002	426.0	1.305668016194332	235.0	0.0020242914979757085	-194.0	-39.0	0.18351429882244993	-0.7247097844425157	37.0	-0.5596485095369218	-151.0	
-0.053652094930192434	2041.0	1246.0	10.110980983171233	-0.01518437116539531	2095.0	0.0	1840.33203125	60304.0	-0.23750000000000002	426.0	1.305668016194332	235.0	0.0020242914979757085	-194.0	-42.0	0.061171432940816645	-0.7356575584243829	38.0	-0.5137245363023658	-143.0	
-0.06567757160997602	2040.0	1247.0	10.098909505669067	-0.0034978627111521554	2096.0	0.0	1859.86328125	60944.0	-0.23750000000000002	426.0	1.305668016194332	235.0	0.0020242914979757085	-194.0	-41.0	0.16822144058724578	-0.8166892551479212	43.0	-0.529879336927726	-150.0	
-0.029969257253327344	2041.0	1247.0	10.098312369905363	-0.015200915053944108	2093.0	0.0	1879.39453125	61584.0	-0.2575	418.0	1.311740890688259	238.0	0.0020242914979757085	-194.0	-34.0	-0.0764642911760208	-0.6981638223710908	36.0	-0.6361054682068321	-134.0	
-0.04186801425108276	2044.0	1247.0	10.09891286060601	-0.05145247112316173	2094.0	0.0	1898.92578125	62224.0	-0.2575	418.0	1.311740890688259	238.0	0.0020242914979757085	-194.0	-34.0	0.22939287352806242	-0.6181126207706924	30.0	-0.635304956190828	-154.0	
-0.042113023260771376	2043.0	1249.0	10.074411959637148	-0.0398967464615515	2094.0	0.0	1918.45703125	62864.0	-0.2575	418.0	1.311740890688259	238.0	0.0020242914979757085	-194.0	-47.0	0.18351429882244993	-0.6336529555093372	31.0	-0.4359820719825907	-151.0	
-0.07794564862677172	2040.0	1250.0	10.062577994465688	-0.004347173705387702	2097.0	0.0	1937.98828125	63504.0	-0.2575	418.0	1.311740890688259	238.0	0.0020242914979757085	-194.0	-48.0	0.1988071570576541	-0.7113215922355888	36.0	-0.4214142746917283	-152.0	
-0.07745683494373273	2041.0	1246.0	10.111459362769585	-0.01541285097356368	2097.0	0.0	1957.51953125	64144.0	-0.255	419.0	1.3137651821862348	239.0	0.0020242914979757085	-194.0	-54.0	0.015292858235204161	-0.9048515718064517	49.0	-0.33128267253868754	-140.0	
-0.06567516293729954	2042.0	1247.0	10.099150372936714	-0.027589406821241114	2096.0	0.0	1977.05078125	64784.0	-0.255	419.0	1.3137651821862348	239.0	0.0020242914979757085	-194.0	-46.0	-0.1529285823520416	-0.9737995051209152	54.0	-0.4547280211368314	-129.0	
-0.05353139692985548	2040.0	1245.0	10.123050783204928	-0.002893575413633692	2095.0	0.0	1996.58203125	65424.0	-0.255	419.0	1.3137651821862348	239.0	0.0020242914979757085	-194.0	-47.0	-0.45878574705612485	-0.7310092091271281	39.0	-0.4369556345187687	-109.0	
-0.041994733933110914	2040.0	1248.0	10.086240892403195	-0.0035144065997009255	2094.0	0.0	2016.11328125	528.0	-0.2475	422.0	1.3137651821862348	239.0	-0.04048582995951417	-173.0	-36.0	-0.24468573176326658	-0.5071739667888782	24.0	-0.6035066023347602	-123.0	
-0.018065682910218955	2042.0	1247.0	10.09819361374001	-0.027132447204904403	2092.0	0.0	2035.64453125	1168.0	-0.2475	422.0	1.3137651821862348	239.0	-0.04048582995951417	-173.0	-39.0	0.061171432940816645	-0.596770872620137	29.0	-0.558369120418698	-143.0	
-0.041869218587421	2043.0	1247.0	10.098792426972185	-0.03940669906811725	2094.0	0.0	2055.17578125	1808.0	-0.2475	422.0	1.3137651821862348	239.0	-0.04048582995951417	-173.0	-33.0	0.36702859764489987	-0.6234640697538864	30.0	-0.6507029543387849	-163.0	
-0.07769943528074487	2042.0	1248.0	10.08719932906837	-0.02794867042204241	2097.0	0.0	2074.70703125	2448.0	-0.2575	418.0	1.2995951417004048	232.0	-0.04251012145748988	-172.0	-32.0	0.18351429882244993	-0.4929251157815087	22.0	-0.6647420484571861	-151.0	
-0.06555326060062436	2042.0	1246.0	10.111340606604232	-0.027344383124523974	2096.0	0.0	2094.23828125	3088.0	-0.2575	418.0	1.2995951417004048	232.0	-0.04251012145748988	-172.0	-29.0	0.22939287352806242	-0.6327261841162386	31.0	-0.712173510114908	-154.0	
-0.053773997266867615	2041.0	1247.0	10.098790749503715	-0.01542939486211245	2095.0	0.0	2113.76953125	3728.0	-0.2575	418.0	1.2995951417004048	232.0	-0.04251012145748988	-172.0	-23.0	0.5199571799969415	-0.3973356442529013	15.0	-0.8018865066650241	-173.0	
-0.03008875091732606	2043.0	1248.0	10.08636300350549	-0.03953748286075018	2093.0	0.0	2133.30078125	4368.0	-0.2575	418.0	1.2995951417004048	232.0	-0.04251012145748988	-172.0	-27.0	0.10705000764642914	-0.5044804133065961	23.0	-0.7415800197230615	-146.0	
-0.041997142605787394	2038.0	1248.0	10.086000025135547	0.020577137510388033	2094.0	0.0	2152.83203125	5008.0	-0.2625	416.0	1.3076923076923077	236.0	0.004048582995951417	-195.0	-34.0	0.10705000764642914	-0.5670772630168416	27.0	-0.6347946026132896	-146.0	
-0.07745803928007097	2040.0	1246.0	10.111338929135762	-0.0033670789185192007	2097.0	0.0	2172.36328125	5648.0	-0.2625	416.0	1.3076923076923077	236.0	0.004048582995951417	-195.0	-16.0	-0.04587857470561248	-0.3736304707260831	15.0	-0.9090608405366303	-136.0	
-0.8390661393225965	2058.0	1245.0	10.141005115359386	-0.22725730607399	2161.0	0.0	2191.89453125	6288.0	-0.2625	416.0	1.3076923076923077	236.0	0.004048582995951417	-195.0	32.0	-1.5445786817556202	23.96443781907665	-1563.0	-1.4022153732285985	-38.0	
-0.4343927851104412	2052.0	1245.0	10.132150060384452	-0.15109851700486113	2127.0	0.0	2211.42578125	6928.0	-0.2575	418.0	1.311740890688259	238.0	-0.012145748987854251	-187.0	-1.0	-1.0093286435234747	2.820250837825821	-190.0	-1.107289282322985	-73.0	
0.0417020151603645	2052.0	1245.0	10.122582468417402	-0.14652892084149408	2087.0	0.0	2230.95703125	7568.0	-0.2575	418.0	1.311740890688259	238.0	-0.012145748987854251	-187.0	-116.0	0.5046643217617374	-1.6875919315341383	98.0	0.6122479106677798	-172.0	
0.01740003110941757	2044.0	1249.0	10.07333644427509	-0.051371318996175086	2089.0	0.0	2250.48828125	8208.0	-0.2575	418.0	1.311740890688259	238.0	-0.012145748987854251	-187.0	-25.0	0.8411072029362289	-0.8257664116561427	42.0	-0.7754818470228068	-194.0	
0.041080460113606186	2042.0	1250.0	10.060426963741572	-0.027296318774634898	2087.0	0.0	2270.01953125	8848.0	-0.2575	418.0	1.311740890688259	238.0	-0.012145748987854251	-187.0	-43.0	2.1410001529285827	-0.9112800831167271	44.0	-0.5001362778911642	-279.0	
-0.029850967925666883	2038.0	1246.0	10.110141302671408	0.021181424807906468	2093.0	0.0	2289.55078125	9488.0	-0.2775	410.0	1.2894736842105263	227.0	-0.0465587044534413	-170.0	-48.0	1.881021562930112	-0.8093648619130933	38.0	-0.4223947073885034	-262.0	
-0.08959939661483853	2044.0	1248.0	10.087679386135195	-0.05215445443621558	2098.0	0.0	2309.08203125	10128.0	-0.2775	410.0	1.2894736842105263	227.0	-0.0465587044534413	-170.0	-66.0	1.5751643982260286	-0.7229899754481042	33.0	-0.14533025267760522	-242.0	
-0.08972491196052843	2041.0	1249.0	10.075127851566206	-0.016262161967799227	2098.0	0.0	2328.61328125	10768.0	-0.2775	410.0	1.2894736842105263	227.0	-0.0465587044534413	-170.0	-53.0	1.1622572258755162	-0.6121964917181787	27.0	-0.3437006053959297	-215.0	
-0.0655544649369626	2041.0	1246.0	10.111220172970409	-0.015298611069479495	2096.0	0.0	2348.14453125	11408.0	-0.28250000000000003	408.0	1.2894736842105263	227.0	-0.03441295546558704	-176.0	-36.0	0.8869857776418414	-0.8600505172057799	44.0	-0.6070353678389292	-197.0	
-0.0657958609376365	2043.0	1248.0	10.08708057290302	-0.039880202573002704	2096.0	0.0	2367.67578125	12048.0	-0.28250000000000003	408.0	1.2894736842105263	227.0	-0.03441295546558704	-176.0	-39.0	0.3976143141153082	-0.7947957719946226	41.0	-0.5603493694124428	-165.0	
-0.053648481921177715	2044.0	1246.0	10.111342284072704	-0.051321687330528803	2095.0	0.0	2387.20703125	12688.0	-0.28250000000000003	408.0	1.2894736842105263	227.0	-0.03441295546558704	-176.0	-35.0	0.749350053525004	-0.8082500767942055	41.0	-0.6218618470929383	-188.0	
-0.053652094930192434	2041.0	1246.0	10.110980983171233	-0.01518437116539531	2095.0	0.0	2406.73828125	13328.0	-0.2625	416.0	1.285425101214575	225.0	-0.032388663967611336	-177.0	-64.0	0.9175714941122497	-0.834808427728245	42.0	-0.1771374045166564	-199.0	
-0.04175092925976054	2040.0	1246.0	10.110621359738232	-0.0030243592062666746	2094.0	0.0	2426.26953125	13968.0	-0.2625	416.0	1.285425101214575	225.0	-0.032388663967611336	-177.0	-52.0	0.5811286129377581	-0.8502723258220549	44.0	-0.36142584739509337	-177.0	
-0.48215066287363817	2030.0	1246.0	10.118267045969517	0.11320648489306362	2131.0	0.0	2445.80078125	14608.0	-0.2625	416.0	1.285425101214575	225.0	-0.032388663967611336	-177.0	-32.0	0.04587857470561248	19.907402301668924	-1304.0	-0.46073877428268173	-142.0	
0.18475378619720656	2035.0	1243.0	10.142045286387322	0.06011013033670648	2075.0	0.0	2465.33203125	15248.0	-0.2625	416.0	1.285425101214575	225.0	-0.032388663967611336	-177.0	-16.0	-0.6423000458785748	17.830224184473497	-1167.0	-0.7270222939846345	-97.0	
-0.18458539102269345	2035.0	1246.0	10.11288946915923	0.05583362221994562	2106.0	0.0	2484.86328125	15888.0	-0.34500000000000003	383.0	1.2530364372469636	209.0	0.004048582995951417	-195.0	-6.0	-0.36702859764489987	17.113236025025707	-1121.0	-0.8876370121603614	-115.0	
-0.12505547594376917	2050.0	1246.0	10.113500024670703	-0.12428175908530073	2101.0	0.0	2504.39453125	16528.0	-0.34500000000000003	383.0	1.2530364372469636	209.0	0.004048582995951417	-195.0	-43.0	0.764642911760208	7.756966757326658	-516.0	-0.4134538094867304	-189.0	
-0.4825031221839432	2041.0	1249.0	10.083021114939022	-0.02003207880257707	2131.0	0.0	2523.92578125	17168.0	-0.34500000000000003	383.0	1.2530364372469636	209.0	0.004048582995951417	-195.0	-33.0	-0.25997858999847073	3.0314614620083935	-206.0	-0.6141536990211622	-122.0	
0.17200773452441598	2043.0	1250.0	10.057916309584456	-0.03808545188475343	2076.0	0.0	2543.45703125	17808.0	-0.53	309.0	1.1012145748987854	134.0	0.016194331983805668	-201.0	-50.0	0.16822144058724578	-0.12593813397385686	-2.0	-0.3848714727928612	-150.0	
0.6723948841554627	2043.0	1246.0	10.096631272689129	-0.03230728112634951	2034.0	0.0	2562.98828125	18448.0	-0.53	309.0	1.1012145748987854	134.0	0.016194331983805668	-201.0	-51.0	0.16822144058724578	-7.431929199977642	473.0	-0.44258689979477417	-150.0	
-0.2918454841290352	2021.0	1247.0	10.101165872810766	0.22320124815709363	2115.0	0.0	2582.51953125	19088.0	-0.53	309.0	1.1012145748987854	134.0	0.016194331983805668	-201.0	-36.0	-0.5046643217617374	2.7331734078788545	-186.0	-0.5711031285880829	-106.0	
0.37506980396885364	2035.0	1244.0	10.126028015932985	0.061692945105336155	2059.0	0.0	2602.05078125	19728.0	-0.53	309.0	1.1012145748987854	134.0	0.016194331983805668	-201.0	-48.0	0.382321455880104	0.09651624292170607	-17.0	-0.41333589634015544	-164.0	
0.016798949780409272	2051.0	1254.0	10.013228311374261	-0.13691684186507208	2089.0	0.0	2621.58203125	20368.0	-0.6075	278.0	0.902834008097166	36.0	0.058704453441295545	-222.0	-57.0	-0.24468573176326658	-8.785218403928752	562.0	-0.3640528898855358	-123.0	
0.05312881918381626	2062.0	1249.0	10.074786680286389	-0.2678524962747232	2086.0	0.0	2641.11328125	21008.0	-0.6075	278.0	0.902834008097166	36.0	0.058704453441295545	-222.0	-72.0	0.474078605291329	-7.739617788086152	492.0	-0.12342962885523623	-170.0	
-0.2795617507398424	2034.0	1244.0	10.139063021253854	0.06745552243575093	2114.0	0.0	2660.64453125	21648.0	-0.6075	278.0	0.902834008097166	36.0	0.058704453441295545	-222.0	-69.0	-0.2752714482336749	-2.879643299061207	178.0	-0.12086333493936151	-121.0	
0.06548628145615476	2035.0	1245.0	10.120056717044047	0.058477683902430466	2085.0	0.0	2680.17578125	22288.0	-0.5725	292.0	0.562753036437247	-132.0	0.0708502024291498	-228.0	-40.0	0.5199571799969415	3.3837109145269304	-231.0	-0.5032198188891025	-173.0	
0.3270910039227328	2032.0	1247.0	10.090052773225661	0.09663823056398152	2063.0	0.0	2699.70703125	22928.0	-0.5725	292.0	0.562753036437247	-132.0	0.0708502024291498	-228.0	-44.0	1.1622572258755162	0.6657833712620718	-56.0	-0.46902115968925134	-215.0	
0.5407229480248812	2031.0	1252.0	10.024675754869072	0.10951520240895554	2045.0	0.0	2719.23828125	23568.0	-0.5725	292.0	0.562753036437247	-132.0	0.0708502024291498	-228.0	-36.0	0.749350053525004	-2.607946671491391	158.0	-0.6245143293817853	-188.0	
-0.019030062576576343	2051.0	1255.0	10.001755647104272	-0.1375045852740418	2092.0	0.0	2738.76953125	24208.0	-0.39	365.0	0.20850202429149797	-307.0	0.03036437246963563	-208.0	-38.0	0.061171432940816645	-5.7952976981589925	367.0	-0.6256988723322116	-143.0	
-0.470116755839487	2038.0	1245.0	10.13118155890845	0.017199572053509082	2130.0	0.0	2758.30078125	24848.0	-0.39	365.0	0.20850202429149797	-307.0	0.03036437246963563	-208.0	-55.0	-0.030585716470408322	-2.91804315840324	180.0	-0.33607010474653054	-137.0	
-0.3995618738372836	2033.0	1252.0	10.043812616271643	0.07639870587621664	2124.0	0.0	2777.83203125	25488.0	-0.39	365.0	0.20850202429149797	-307.0	0.03036437246963563	-208.0	-39.0	0.8258143447010247	-4.011109909839954	249.0	-0.5925125107908962	-193.0	
-0.434286539146163	2039.0	1244.0	10.142774656812264	0.005741543407434241	2127.0	0.0	2797.36328125	26128.0	-0.39	365.0	0.20850202429149797	-307.0	0.03036437246963563	-208.0	-70.0	0.030585716470408322	-1.7692379024361662	105.0	-0.0944147973149862	-141.0	
-0.041986303578743236	2047.0	1248.0	10.087083927839961	-0.08783481098501228	2094.0	0.0	2816.89453125	26768.0	-0.0675	494.0	0.0020242914979757085	-409.0	-0.08097165991902834	-153.0	-56.0	0.8869857776418414	-6.123322205365728	386.0	-0.3527784115580305	-197.0	
-0.32776267740522536	2049.0	1249.0	10.080875116620321	-0.11491313648983864	2118.0	0.0	2836.42578125	27408.0	-0.0675	494.0	0.0020242914979757085	-409.0	-0.08097165991902834	-153.0	-58.0	0.2752714482336749	-5.407030951172569	341.0	-0.3149265316998491	-157.0	
0.3504081345895723	2032.0	1251.0	10.040813458957233	0.09588661558528137	2061.0	0.0	2855.95703125	28048.0	-0.0675	494.0	0.0020242914979757085	-409.0	-0.08097165991902834	-153.0	-60.0	1.7586786970484785	-5.681998118468612	355.0	-0.2869872360565597	-254.0	
-0.25611669605463655	2039.0	1247.0	10.102616108822064	0.006720070878545509	2112.0	0.0	2875.48828125	28688.0	0.2025	602.0	-0.08704453441295547	-453.0	-0.17408906882591094	-107.0	-59.0	0.09175714941122497	-3.892534882953953	243.0	-0.284437087359538	-145.0	
-0.2681385597254054	2041.0	1248.0	10.090905932221368	-0.017730736832344746	2113.0	0.0	2895.01953125	29328.0	0.2025	602.0	-0.08704453441295547	-453.0	-0.17408906882591094	-107.0	-40.0	0.5964214711729623	-6.1246266341635796	387.0	-0.5983031943760075	-178.0	
-0.19647692200241945	2044.0	1246.0	10.114212561662818	-0.05269256617953891	2107.0	0.0	2914.55078125	29968.0	0.2025	602.0	-0.08704453441295547	-453.0	-0.17408906882591094	-107.0	-58.0	-0.13763572411683744	-4.436912245292346	279.0	-0.3052253446410469	-130.0	
-0.006405913240460942	2043.0	1249.0	10.07369439023962	-0.03955402674929895	2091.0	0.0	2934.08203125	30608.0	0.2025	602.0	-0.08704453441295547	-453.0	-0.17408906882591094	-107.0	-54.0	0.5964214711729623	-7.2495665364749335	460.0	-0.39472982218537234	-178.0	
-0.30383723939134816	2048.0	1248.0	10.092466537055662	-0.10239386092990865	2116.0	0.0	2953.61328125	31248.0	0.3775	672.0	-0.048582995951417005	-434.0	-0.20647773279352227	-91.0	-80.0	0.8105214864658206	-7.446687377371114	472.0	0.002255544516913399	-192.0	
-0.22028407068863615	2042.0	1246.0	10.114450073993524	-0.028829501877618263	2109.0	0.0	2973.14453125	31888.0	0.3775	672.0	-0.048582995951417005	-434.0	-0.20647773279352227	-91.0	-53.0	0.29056430646887904	-3.2843373645771314	203.0	-0.37042201412451925	-158.0	
-0.18496314139610134	2025.0	1249.0	10.075114431818438	0.17555627168023905	2106.0	0.0	2992.67578125	32528.0	0.3775	672.0	-0.048582995951417005	-434.0	-0.20647773279352227	-91.0	-55.0	0.6117143294081664	-2.1131742073549917	126.0	-0.32802141523604805	-179.0	
-0.4579717854957046	2037.0	1243.0	10.155202402810486	0.029849631406071997	2129.0	0.0	3012.20703125	33168.0	0.52	729.0	0.004048582995951417	-408.0	-0.2550607287449393	-67.0	-49.0	0.25997858999847073	-1.0830586939145217	60.0	-0.4097871620503928	-156.0	
0.04145339314166118	2048.0	1247.0	10.097720266547071	-0.09883588001475044	2087.0	0.0	3031.73828125	33808.0	0.52	729.0	0.004048582995951417	-408.0	-0.2550607287449393	-67.0	-66.0	0.4434928888209207	0.2758764291444321	-29.0	-0.13534158863167983	-168.0	
0.45778892569625107	2045.0	1249.0	10.064606855339393	-0.05919021460010504	2052.0	0.0	3051.26953125	34448.0	0.52	729.0	0.004048582995951417	-408.0	-0.2550607287449393	-67.0	-75.0	0.6881786205841872	0.5877040401640943	-50.0	0.005877040401640944	-184.0	
-0.43440482847382356	2042.0	1245.0	10.130945724046216	-0.030640796454416308	2127.0	0.0	3070.80078125	35088.0	0.6425	778.0	0.06275303643724696	-379.0	-0.2894736842105263	-50.0	-54.0	0.3058571647040832	-1.1471836441297787	64.0	-0.33370599326192085	-159.0	
0.05322302178471199	2039.0	1248.0	10.084206940375962	0.009445284688016975	2086.0	0.0	3090.33203125	35728.0	0.6425	778.0	0.06275303643724696	-379.0	-0.2894736842105263	-50.0	-59.0	0.10705000764642914	0.9363966593855085	-71.0	-0.23614777193614342	-146.0	
0.4815984830551443	2049.0	1249.0	10.064610210276337	-0.10714482301211464	2050.0	0.0	3109.86328125	36368.0	0.6425	778.0	0.06275303643724696	-379.0	-0.2894736842105263	-50.0	-64.0	0.29056430646887904	2.343315068809162	-163.0	-0.14535616955128236	-158.0	
-0.11292254896336924	2039.0	1244.0	10.136316532234506	0.008826020817707003	2100.0	0.0	3129.39453125	37008.0	0.6425	778.0	0.06275303643724696	-379.0	-0.2894736842105263	-50.0	-51.0	-0.10705000764642914	-0.3457924687194209	13.0	-0.371725532482192	-132.0	
-0.33845806740862605	2039.0	1239.0	10.201812306756448	0.007880581123693303	2119.0	0.0	3148.92578125	37648.0	0.7175	808.0	0.12955465587044535	-346.0	-0.3157894736842105	-37.0	-50.0	-0.21410001529285827	0.6430080250000108	-51.0	-0.37718201120312256	-125.0	
-0.029595119888934138	2048.0	1244.0	10.135726106344684	-0.0987862483491041	2093.0	0.0	3168.45703125	38288.0	0.7175	808.0	0.12955465587044535	-346.0	-0.3157894736842105	-37.0	-45.0	0.5964214711729623	-1.603464802402297	93.0	-0.4763691577677701	-178.0	
0.0889325404776989	2041.0	1248.0	10.08373023824608	-0.014303539709819457	2083.0	0.0	3187.98828125	38928.0	0.7175	808.0	0.12955465587044535	-346.0	-0.3157894736842105	-37.0	-51.0	0.8869857776418414	-1.1084433326295475	60.0	-0.3793520411212932	-197.0	
-0.5536735375512136	2041.0	1247.0	10.108836721069117	-0.02022747083364787	2137.0	0.0	3207.51953125	39568.0	0.7725	830.0	0.19433198380566802	-314.0	-0.3805668016194332	-5.0	-54.0	0.16822144058724578	-0.6033538871732576	29.0	-0.32826769569235564	-150.0	
0.45728806864982974	2034.0	1253.0	10.014521150697258	0.07233318321851573	2052.0	0.0	3227.05078125	40208.0	0.7725	830.0	0.19433198380566802	-314.0	-0.3805668016194332	-5.0	-55.0	1.2693072335219453	0.13686990701748888	-22.0	-0.30552097409232326	-222.0	
-0.16077583366380022	2039.0	1246.0	10.112892824096171	0.007879013807936042	2104.0	0.0	3246.58203125	40848.0	0.7725	830.0	0.19433198380566802	-314.0	-0.3805668016194332	-5.0	-43.0	0.8564000611714331	-0.2754342064122074	6.0	-0.49377781912411906	-195.0	
-0.05330083995622571	2029.0	1243.0	10.146106480567905	0.13009996458528983	2095.0	0.0	3266.11328125	41488.0	0.8575	864.0	0.2975708502024291	-263.0	-0.3502024291497976	-20.0	-61.0	0.382321455880104	1.2326942597187047	-91.0	-0.20249582861656162	-164.0	
0.1484407775025349	2038.0	1248.0	10.082172988348729	0.022404975975734875	2078.0	0.0	3285.64453125	42128.0	0.8575	864.0	0.2975708502024291	-263.0	-0.3502024291497976	-20.0	-58.0	0.382321455880104	0.44873829670061566	-40.0	-0.2563688392211173	-164.0	
-0.3031034166986205	2050.0	1242.0	10.165848806328423	-0.12501526285969486	2116.0	0.0	3305.17578125	42768.0	0.8575	864.0	0.2975708502024291	-263.0	-0.3502024291497976	-20.0	-73.0	0.4434928888209207	-0.0020503719576916053	-11.0	-0.030709471035826726	-168.0	
0.04071836611259534	2045.0	1253.0	10.024217563640486	-0.06416870602991975	2087.0	0.0	3324.70703125	43408.0	0.8575	864.0	0.2975708502024291	-263.0	-0.3502024291497976	-20.0	-55.0	0.25997858999847073	-0.8840300302981404	47.0	-0.31572997346547954	-156.0	
-0.5895097759262287	2035.0	1248.0	10.096641454996185	0.05145941808764937	2140.0	0.0	3344.23828125	44048.0	0.875	871.0	0.37449392712550605	-225.0	-0.3623481781376518	-14.0	-65.0	1.0093286435234747	-0.10035765714855946	-6.0	-0.15444841315273466	-205.0	
-0.2558740957176244	2038.0	1245.0	10.126876142523278	0.019255890327024267	2112.0	0.0	3363.76953125	44688.0	0.875	871.0	0.37449392712550605	-225.0	-0.3623481781376518	-14.0	-56.0	0.061171432940816645	-0.8300898362174627	44.0	-0.2998460878665478	-143.0	
0.20772688790810878	2053.0	1250.0	10.058403076525165	-0.15820045272294572	2073.0	0.0	3383.30078125	45328.0	0.875	871.0	0.37449392712550605	-225.0	-0.3623481781376518	-14.0	-50.0	0.3976143141153082	1.3568160174942085	-99.0	-0.3700439312781806	-165.0	
0.01763420109206204	2036.0	1247.0	10.096753442539539	0.045484904837615	2089.0	0.0	3402.83203125	45968.0	0.8725	870.0	0.4271255060728745	-199.0	-0.3684210526315789	-11.0	-41.0	0.25997858999847073	-0.6973134876228271	35.0	-0.5286855792524751	-156.0	
-0.006165721576125285	2040.0	1247.0	10.097713556673186	-0.00292666319073126	2091.0	0.0	3422.36328125	46608.0	0.8725	870.0	0.4271255060728745	-199.0	-0.3684210526315789	-11.0	-46.0	0.22939287352806242	-0.2969588476064578	9.0	-0.4479596145616868	-154.0	
0.07728481417132327	2050.0	1246.0	10.109433798084707	-0.12233968071586973	2084.0	0.0	3441.89453125	47248.0	0.8725	870.0	0.4271255060728745	-199.0	-0.3684210526315789	-11.0	-62.0	-0.09175714941122497	-1.2709344951357986	73.0	-0.21218763250698178	-133.0	
-0.08947990295083981	2042.0	1247.0	10.099628752535068	-0.027817886629409455	2098.0	0.0	3461.42578125	47888.0	0.8725	870.0	0.4271255060728745	-199.0	-0.3684210526315789	-11.0	-61.0	0.6728857623489831	0.9903621873953777	-76.0	-0.20491914933979488	-183.0	
-0.16052600730875866	2044.0	1244.0	10.137875459600329	-0.05185979907385213	2104.0	0.0	3480.95703125	48528.0	0.89	877.0	0.4716599190283401	-177.0	-0.3866396761133603	-2.0	-60.0	0.5811286129377581	0.9788048250598546	-75.0	-0.22037920662127503	-177.0	
-0.029485260915641312	2038.0	1243.0	10.146712003673965	0.02191649589805786	2093.0	0.0	3500.48828125	49168.0	0.89	877.0	0.4716599190283401	-177.0	-0.3866396761133603	-2.0	-56.0	0.12234286588163329	2.0436564732891145	-143.0	-0.2711086247714821	-147.0	
0.17212602385207648	2040.0	1249.0	10.069745242350505	-0.0017031120229028807	2076.0	0.0	3520.01953125	49808.0	0.89	877.0	0.4716599190283401	-177.0	-0.3866396761133603	-2.0	-36.0	0.29056430646887904	-3.3432519064402113	207.0	-0.6318673817312735	-158.0	
-0.4342853348098248	2040.0	1244.0	10.142895090446087	-0.006304228647610238	2127.0	0.0	3539.55078125	50448.0	0.895	879.0	0.49190283400809715	-167.0	-0.39473684210526316	2.0	-38.0	0.42820003058571654	-1.3957133705636922	80.0	-0.5817030290562585	-167.0	
-0.18482799135970557	2036.0	1248.0	10.088629435458015	0.04329780277146689	2106.0	0.0	3559.08203125	51088.0	0.895	879.0	0.49190283400809715	-167.0	-0.39473684210526316	2.0	-29.0	0.2752714482336749	0.1190936862630598	-18.0	-0.704655311411115	-157.0	
-0.018564131283963836	2033.0	1251.0	10.04834877636552	0.08029940650362742	2092.0	0.0	3578.61328125	51728.0	0.895	879.0	0.49190283400809715	-167.0	-0.39473684210526316	2.0	-43.0	0.5046643217617374	1.6150805356339843	-116.0	-0.4748726717036571	-172.0	
-0.04187644460545041	2037.0	1247.0	10.098069825169244	0.03286793326214962	2094.0	0.0	3598.14453125	52368.0	0.8675	868.0	0.5242914979757085	-151.0	-0.38461538461538464	-3.0	-35.0	0.09175714941122497	2.7248530747866133	-187.0	-0.5865308155771302	-145.0	
-0.04259942827113389	2044.0	1253.0	10.025771458600897	-0.05292261330346448	2094.0	0.0	3617.67578125	53008.0	0.8675	868.0	0.5242914979757085	-151.0	-0.38461538461538464	-3.0	-48.0	0.09175714941122497	1.2309295424399571	-90.0	-0.4019917633449729	-145.0	
-0.12531252831684014	2039.0	1248.0	10.087794787363606	0.007731686126754345	2101.0	0.0	3637.20703125	53648.0	0.8675	868.0	0.5242914979757085	-151.0	-0.38461538461538464	-3.0	-22.0	0.1529285823520416	2.124553323812943	-148.0	-0.7920121006424906	-149.0	
-0.24445813072121678	2039.0	1249.0	10.07799645168785	0.006344263389195415	2111.0	0.0	3656.73828125	54288.0	0.8675	868.0	0.5242914979757085	-151.0	-0.38461538461538464	-3.0	-34.0	0.5964214711729623	7.319035193976893	-487.0	-0.5559334780433522	-178.0	
-0.2201693943699904	2036.0	1245.0	10.1259177058581	0.04369015414936575	2109.0	0.0	3676.26953125	54928.0	0.855	863.0	0.5465587044534413	-140.0	-0.38461538461538464	-3.0	-24.0	0.0764642911760208	4.7266448581623814	-317.0	-0.7353022179827463	-144.0	
-0.27991300571380917	2046.0	1247.0	10.103937523857182	-0.07782881331493421	2114.0	0.0	3695.80078125	55568.0	0.855	863.0	0.5465587044534413	-140.0	-0.38461538461538464	-3.0	-28.0	0.1529285823520416	5.630434812376024	-376.0	-0.6648863838081104	-149.0	
-0.19635863267475895	2041.0	1245.0	10.126041494428867	-0.016310226317688303	2107.0	0.0	3715.33203125	56208.0	0.855	863.0	0.5465587044534413	-140.0	-0.38461538461538464	-3.0	-42.0	0.474078605291329	3.8620410502568148	-262.0	-0.4677475502155538	-170.0	
0.20796105789075325	2045.0	1248.0	10.081820074789613	-0.06134422888915564	2073.0	0.0	3734.86328125	56848.0	0.8575	864.0	0.5404858299595142	-143.0	-0.4149797570850203	12.0	-28.0	0.22939287352806242	-2.4782580522672766	151.0	-0.7459733124545433	-154.0	
0.1128567741552379	2039.0	1247.0	10.0952012250476	0.010261507905154982	2081.0	0.0	3754.39453125	57488.0	0.8575	864.0	0.5404858299595142	-143.0	-0.4149797570850203	12.0	-52.0	-0.04587857470561248	-10.638088045238456	682.0	-0.4593040045892574	-136.0	
-0.2915848187469495	2035.0	1245.0	10.127232411019335	0.05505048677990518	2115.0	0.0	3773.92578125	58128.0	0.8575	864.0	0.5404858299595142	-143.0	-0.4149797570850203	12.0	4.0	-0.04587857470561248	-21.272947876679336	1374.0	-1.4249436877586608	-136.0	
2.516768604176443	2038.0	1250.0	10.010193750977619	0.04464866949505175	1879.0	0.0	3793.45703125	58768.0	0.8575	864.0	0.5404858299595142	-143.0	-0.4149797570850203	12.0	-52.0	1.7433858388132744	-10.032900189634146	638.0	-0.4532521260332143	-253.0	
2.8272463904813683	2072.0	1242.0	10.105591429089191	-0.359977153296535	1853.0	0.0	3812.98828125	59408.0	0.8425	858.0	0.5587044534412956	-134.0	-0.39068825910931176	0.0	-78.0	1.3151858082275578	-2.606260455667914	156.0	0.019970846417695583	-225.0	
3.1958421103178347	2062.0	1245.0	10.060401507973934	-0.23671306680963208	1822.0	0.0	3832.51953125	60048.0	0.8425	858.0	0.5587044534412956	-134.0	-0.39068825910931176	0.0	-44.0	0.6423000458785748	5.423838509462512	-364.0	-0.42144060830724694	-181.0	
4.71858756176492	2040.0	1251.0	9.95399427173014	0.04144648394381831	1694.0	0.0	3852.05078125	60688.0	0.8425	858.0	0.5587044534412956	-134.0	-0.39068825910931176	0.0	-25.0	-2.752714482336749	21.081677883298823	-1373.0	-0.5564074040732571	41.0	
3.5778888004477016	2022.0	1235.0	10.169832425722536	0.2512237292900121	1790.0	0.0	3871.58203125	61328.0	0.8025	842.0	0.576923076923077	-125.0	-0.402834008097166	6.0	-29.0	0.474078605291329	33.625711058194334	-2197.0	-0.36958913769180235	-170.0	
5.187112812311191	2095.0	1216.0	10.377947897785731	-0.6080397934392457	1655.0	0.0	3891.11328125	61968.0	0.8025	842.0	0.576923076923077	-125.0	-0.402834008097166	6.0	-67.0	-2.09512157822297	35.814415139667695	-2333.0	0.23538828213167773	-2.0	
5.231992267477887	2055.0	1238.0	10.103988652550663	-0.13114247294890663	1651.0	0.0	3910.64453125	62608.0	0.8025	842.0	0.576923076923077	-125.0	-0.402834008097166	6.0	-94.0	3.043278788805628	29.42171133309516	-1931.0	0.5857623028353248	-338.0	
4.638737227943317	2084.0	1223.0	10.302294222903145	-0.48250650229864844	1701.0	0.0	3930.17578125	63248.0	0.7575000000000001	824.0	0.5546558704453441	-136.0	-0.38866396761133604	-1.0	52.0	-4.587857470561248	31.118210230467003	-2020.0	-1.637567322277193	161.0	
4.312940457562216	1946.0	1258.0	9.865474327650077	1.1681497345021177	1728.0	0.0	3949.70703125	63888.0	0.7575000000000001	824.0	0.5546558704453441	-136.0	-0.38866396761133604	-1.0	-4.0	0.9634500688178621	42.56154758786085	-2779.0	-0.6638428638482599	-202.0	
5.2056157993973	1944.0	1258.0	9.84729422544421	1.20080927141852	1653.0	0.0	3969.23828125	64528.0	0.7575000000000001	824.0	0.5546558704453441	-136.0	-0.38866396761133604	-1.0	-215.0	-1.988071570576541	31.942248299035143	-2083.0	2.4676501951278382	-9.0	
4.153649793007035	2172.0	1200.0	10.603074538798788	-1.54158273418552	1742.0	0.0	3988.76953125	65168.0	0.7575000000000001	824.0	0.5546558704453441	-136.0	-0.38866396761133604	-1.0	70.0	0.5505428964673498	26.547334627125156	-1736.0	-1.9594767841568599	-175.0	
3.3274981257095058	2162.0	1240.0	10.130764951902957	-1.4388085148855685	1811.0	0.0	4008.30078125	272.0	0.7325	814.0	0.4777327935222672	-174.0	-0.41700404858299595	13.0	-6.0	-6.147729010552073	9.346471297925486	-601.0	-0.9653046594313637	263.0	
3.9734932082923633	1976.0	1309.0	9.25408273399826	0.7910816470038526	1756.0	0.0	4027.83203125	912.0	0.7325	814.0	0.4777327935222672	-174.0	-0.41700404858299595	13.0	-263.0	9.558036397002601	-4.748488421825118	272.0	2.8372780435092313	-764.0	
3.04959197445532	2055.0	1273.0	9.721102207436756	-0.16062420478141046	1834.0	0.0	4047.36328125	1552.0	0.7325	814.0	0.4777327935222672	-174.0	-0.41700404858299595	13.0	-116.0	-16.179844012846	-20.153882581759778	1342.0	0.42758500416552336	919.0	
1.1029122722904778	2212.0	1231.0	10.29122722904777	-2.0602547664310795	1998.0	0.0	4066.89453125	2192.0	0.8375	856.0	0.4230769230769231	-201.0	-0.37044534412955465	-10.0	-303.0	15.858693989906715	-17.449621753464015	1081.0	3.324046056517838	-1176.0	
1.2772019786926616	2128.0	1265.0	9.863055012123295	-1.0550271209344628	1983.0	0.0	4086.42578125	2832.0	0.8375	856.0	0.4230769230769231	-201.0	-0.37044534412955465	-10.0	-149.0	-18.93255849518275	-6.65224906677555	471.0	1.0689693000334874	1099.0	
0.9714579098003185	2077.0	1234.0	10.241029075269955	-0.436067249035152	2009.0	0.0	4105.95703125	3472.0	0.8375	856.0	0.4230769230769231	-201.0	-0.37044534412955465	-10.0	-151.0	17.556201254014375	-8.388813169932448	489.0	1.0822926263181685	-1287.0	
0.17496858072494265	1971.0	1225.0	10.354000929637122	0.8353357284963774	2076.0	0.0	4125.48828125	4112.0	0.8375	856.0	0.4230769230769231	-201.0	-0.37044534412955465	-10.0	40.0	-3.226793087628078	-18.633144694143493	1211.0	-1.950947067625799	72.0	
0.28710717597096846	1987.0	1184.0	10.853574739953988	0.6536775063178255	2067.0	0.0	4145.01953125	4752.0	0.74	817.0	0.2145748987854251	-304.0	-0.6437246963562753	125.0	-80.0	5.168986083499006	-9.359028851085997	585.0	-0.01686787022023542	-477.0	
1.4028778452116424	1882.0	1208.0	10.525879759259483	1.9233415543601975	1973.0	0.0	4164.55078125	5392.0	0.74	817.0	0.2145748987854251	-304.0	-0.6437246963562753	125.0	127.0	-4.4196360299740025	-24.355234647351658	1587.0	-3.3431380454147472	150.0	
2.1912770596219415	1951.0	1283.0	9.603896438384595	1.0814605788819835	1906.0	0.0	4184.08203125	6032.0	0.74	817.0	0.2145748987854251	-304.0	-0.6437246963562753	125.0	-246.0	-4.649028903502065	-63.531817361081984	4131.0	1.9885885319285388	165.0	
-3.2009339352522597	2361.0	1193.0	10.858987427155014	-3.887118747435929	2360.0	0.0	4203.61328125	6672.0	0.1975	600.0	0.3866396761133603	-219.0	-1.0951417004048583	348.0	-329.0	-16.562165468726107	-85.72386122281428	5604.0	3.040260236935583	944.0	
-2.4536329690452456	2306.0	1311.0	9.39860785738021	-3.2462027267597153	2296.0	0.0	4223.14453125	7312.0	0.1975	600.0	0.3866396761133603	-219.0	-1.0951417004048583	348.0	-57.0	4.618443187031657	-53.12236414544496	3432.0	-0.8074243473006979	-441.0	
-0.5532692917783645	2073.0	1244.0	10.149261298354032	-0.40495710550491987	2137.0	0.0	4242.67578125	7952.0	0.1975	600.0	0.3866396761133603	-219.0	-1.0951417004048583	348.0	-132.0	0.09175714941122497	-30.20475072742563	1953.0	0.5725880612388634	-145.0	
0.6603793065328982	1949.0	1246.0	10.08554970090888	1.0998810521437474	2035.0	0.0	4262.20703125	8592.0	0.72	809.0	0.5344129554655871	-146.0	-0.36639676113360325	-12.0	-120.0	16.13396543814039	-68.43499097133075	4397.0	0.006151854902313403	-1194.0	
-3.4030898716872833	2247.0	1288.0	9.691012831271646	-2.5390058228143317	2376.0	0.0	4281.73828125	9232.0	0.72	809.0	0.5344129554655871	-146.0	-0.36639676113360325	-12.0	-407.0	-14.054136718152623	-97.32553082006669	6351.0	4.121113266296802	780.0	
-3.7696325211816837	2241.0	1268.0	9.941509786593542	-2.4653721535763315	2407.0	0.0	4301.26953125	9872.0	0.72	809.0	0.5344129554655871	-146.0	-0.36639676113360325	-12.0	-132.0	2.2327573023398077	-66.14281907714619	4284.0	0.21320737774165777	-285.0	
-2.5906105082028765	2002.0	1260.0	9.986568227331388	0.42683730765737005	2308.0	0.0	4320.80078125	10512.0	0.72	809.0	0.5344129554655871	-146.0	-0.36639676113360325	-12.0	-338.0	-10.093286435234747	-47.36300652345306	3093.0	3.561969136852319	521.0	
-3.6802744807027272	1994.0	1216.0	10.543980501155842	0.5234744555775352	2400.0	0.0	4340.33203125	11152.0	0.7225	810.0	0.5080971659919028	-159.0	-0.3076923076923077	-41.0	-103.0	-4.4196360299740025	-64.71874718442304	4209.0	-0.217541929416733	150.0	
-6.444331993476385	2175.0	1240.0	10.328705414266363	-1.6891945128542556	2632.0	0.0	4359.86328125	11792.0	0.7225	810.0	0.5080971659919028	-159.0	-0.3076923076923077	-41.0	-213.0	-5.994800428200032	-62.79617743354901	4087.0	1.4895769704857469	253.0	
-6.781903738578916	2244.0	1276.0	9.904864237346453	-2.5323723550484982	2660.0	0.0	4379.39453125	12432.0	0.7225	810.0	0.5080971659919028	-159.0	-0.3076923076923077	-41.0	-141.0	0.3976143141153082	-45.2145576995131	2928.0	0.5605903444411129	-165.0	
-6.496437407924388	2187.0	1277.0	9.880068731370756	-1.84326661390966	2636.0	0.0	4398.92578125	13072.0	0.85	861.0	0.4311740890688259	-197.0	-0.2368421052631579	-76.0	-56.0	0.5505428964673498	-35.64083059807043	2306.0	-0.6479534954850775	-175.0	
-5.505749926952144	2075.0	1253.0	10.139293019071326	-0.47877766298448043	2553.0	0.0	4418.45703125	13712.0	0.85	861.0	0.4311740890688259	-197.0	-0.2368421052631579	-76.0	-67.0	-3.1809145129224654	-17.49784329842646	1136.0	-0.29773430224926384	69.0	
-4.374493546487589	2010.0	1248.0	10.169692970288638	0.31627542996499325	2458.0	0.0	4437.98828125	14352.0	0.85	861.0	0.4311740890688259	-197.0	-0.2368421052631579	-76.0	-14.0	-2.263343018810216	-11.389507110440947	737.0	-1.0499085742500287	9.0	
-3.610918148349526	2006.0	1233.0	10.336756593618848	0.3754452274973154	2394.0	0.0	4457.51953125	14992.0	0.9625	906.0	0.47975708502024295	-173.0	-0.2408906882591093	-74.0	-53.0	-2.5080287505734824	-10.678191712636664	691.0	-0.44436055760511456	25.0	
-2.875032708626211	2015.0	1250.0	10.115776756426513	0.26995075021094284	2332.0	0.0	4477.05078125	15632.0	0.9625	906.0	0.47975708502024295	-173.0	-0.2408906882591093	-74.0	-28.0	-2.0645358617525615	-14.260418825834224	923.0	-0.8637949201902129	-4.0	
-2.5449661819651714	2091.0	1277.0	9.78909608919717	-0.6489448484694432	2304.0	0.0	4496.58203125	16272.0	0.9625	906.0	0.47975708502024295	-173.0	-0.2408906882591093	-74.0	-103.0	-0.45878574705612485	-17.12005827736696	1104.0	0.25844495965382774	-109.0	
-2.8998611051531955	2076.0	1259.0	10.013889484680439	-0.467275038225393	2334.0	0.0	4516.11328125	16912.0	0.9625	906.0	0.47975708502024295	-173.0	-0.2408906882591093	-74.0	-62.0	0.6270071876433706	-12.727550328431361	816.0	-0.3267537908399374	-180.0	
-2.5181500136248984	2061.0	1252.0	10.089760542272078	-0.2812176145920122	2302.0	0.0	4535.64453125	17552.0	0.885	875.0	0.5850202429149798	-121.0	-0.32388663967611336	-33.0	-53.0	1.5751643982260286	-8.011452317727336	507.0	-0.4176931636560213	-242.0	
-1.7452346032229196	2055.0	1258.0	10.000349201517565	-0.20298753067657666	2237.0	0.0	4555.17578125	18192.0	0.885	875.0	0.5850202429149798	-121.0	-0.32388663967611336	-33.0	-34.0	0.8258143447010247	-1.8109011160118953	106.0	-0.6472328411432401	-193.0	
-1.5655947060732613	2061.0	1249.0	10.107196059340534	-0.27134335117512676	2222.0	0.0	4574.70703125	18832.0	0.885	875.0	0.5850202429149798	-121.0	-0.32388663967611336	-33.0	-69.0	0.0764642911760208	5.781009577094633	-386.0	-0.03425680617780311	-144.0	
-0.9466931437753023	2043.0	1249.0	10.092590384374544	-0.04857897917194892	2170.0	0.0	4594.23828125	19472.0	0.865	867.0	0.5890688259109311	-119.0	-0.3502024291497976	-20.0	-38.0	0.3517357394096957	5.590187604679102	-374.0	-0.5118440193038305	-162.0	
-0.08961264431455913	2033.0	1248.0	10.086354616163135	0.08034903816927375	2098.0	0.0	4613.76953125	20112.0	0.865	867.0	0.5890688259109311	-119.0	-0.3502024291497976	-20.0	-34.0	0.12234286588163329	0.12444307043581794	-18.0	-0.6278793992787629	-147.0	
-0.029976483271356755	2035.0	1247.0	10.09758976810242	0.057073717276322766	2093.0	0.0	4633.30078125	20752.0	0.865	867.0	0.5890688259109311	-119.0	-0.3502024291497976	-20.0	-19.0	-0.5811286129377581	-0.7525813796201124	41.0	-0.8668168986511958	-101.0	
-0.04187764894178865	2036.0	1247.0	10.09794939153542	0.0449137053171941	2094.0	0.0	4652.83203125	21392.0	0.865	867.0	0.5890688259109311	-119.0	-0.3502024291497976	-20.0	-24.0	0.1529285823520416	-0.8903728546606153	48.0	-0.7914723951109763	-149.0	
-0.0061693345851399906	2037.0	1247.0	10.097352255771716	0.03321065297440218	2091.0	0.0	4672.36328125	22032.0	0.845	859.0	0.5850202429149798	-121.0	-0.3643724696356275	-13.0	-28.0	-0.1529285823520416	-0.8787535093533076	48.0	-0.7299782670254036	-129.0	
0.01763540542840028	2037.0	1247.0	10.096873876173362	0.03343913278257052	2089.0	0.0	4691.89453125	22672.0	0.845	859.0	0.5850202429149798	-121.0	-0.3643724696356275	-13.0	-39.0	0.1988071570576541	-0.6330371727243739	31.0	-0.5587317834197404	-152.0	
0.005735444094306624	2039.0	1247.0	10.097353933240186	0.009233348768397376	2090.0	0.0	4711.42578125	23312.0	0.845	859.0	0.5850202429149798	-121.0	-0.3643724696356275	-13.0	-41.0	0.948157210582658	-0.4172236637328445	15.0	-0.5258846810135753	-201.0	
-0.029849763589328643	2039.0	1246.0	10.110261736305233	0.009135652752861989	2093.0	0.0	4730.95703125	23952.0	0.835	855.0	0.5890688259109311	-119.0	-0.36639676113360325	-12.0	-42.0	0.42820003058571654	-0.6888143911077627	34.0	-0.5132561046291996	-167.0	
-0.05401900627655623	2040.0	1249.0	10.074289848534853	-0.0038736702005022217	2095.0	0.0	4750.48828125	24592.0	0.835	855.0	0.5890688259109311	-119.0	-0.36639676113360325	-12.0	-53.0	0.0764642911760208	-0.9225254657828923	50.0	-0.3468038951365769	-144.0	
-0.053653299266530674	2040.0	1246.0	10.110860549537408	-0.0031385991103508315	2095.0	0.0	4770.01953125	25232.0	0.835	855.0	0.5890688259109311	-119.0	-0.36639676113360325	-12.0	-55.0	-0.1529285823520416	-0.8213732624265462	44.0	-0.3151034057867636	-129.0	
-0.01794859791889672	2038.0	1246.0	10.109902112872232	0.021295664711990653	2092.0	0.0	4789.55078125	25872.0	0.865	867.0	0.5890688259109311	-119.0	-0.3603238866396761	-15.0	-48.0	0.3517357394096957	-0.5790117265531561	27.0	-0.42009117603490403	-162.0	
0.02941105575314229	2033.0	1248.0	10.083962718171373	0.08149143721011551	2088.0	0.0	4809.08203125	26512.0	0.865	867.0	0.5890688259109311	-119.0	-0.3603238866396761	-15.0	-29.0	0.7340571952897997	-0.714433581786089	35.0	-0.7129905840916065	-187.0	
-0.5415189325167253	2048.0	1245.0	10.133821034041743	-0.10394358792144079	2136.0	0.0	4828.61328125	27152.0	0.865	867.0	0.5890688259109311	-119.0	-0.3603238866396761	-15.0	-20.0	-1.2998929499923537	6.058906358442731	-400.0	-0.7833575376124425	-54.0	
-0.05390192128523398	2036.0	1248.0	10.085998347667077	0.044554441716392834	2095.0	0.0	4848.14453125	27792.0	0.865	867.0	0.5890688259109311	-119.0	-0.3603238866396761	-15.0	-31.0	0.09175714941122497	-0.6890510078814989	35.0	-0.6820477910363109	-145.0	
-0.04187403593277396	2039.0	1247.0	10.098310692436892	0.008776389152060665	2094.0	0.0	4867.67578125	28432.0	0.86	865.0	0.5870445344129555	-120.0	-0.3785425101214575	-6.0	-37.0	-0.061171432940816645	-0.7146164748297837	37.0	-0.5902365437570443	-135.0	
-0.01807290892824838	2036.0	1247.0	10.097471011937067	0.04514218512536247	2092.0	0.0	4887.20703125	29072.0	0.86	865.0	0.5870445344129555	-120.0	-0.3785425101214575	-6.0	-38.0	0.3976143141153082	-0.6408352343639349	31.0	-0.5741542476942608	-165.0	
-0.0061693345851399906	2037.0	1247.0	10.097352255771716	0.03321065297440218	2091.0	0.0	4906.73828125	29712.0	0.86	865.0	0.5870445344129555	-120.0	-0.3785425101214575	-6.0	-39.0	0.21410001529285827	-0.8335980664666383	44.0	-0.560737392357163	-153.0	
-0.05389710393988105	2040.0	1248.0	10.086480082202371	-0.0036286465037850824	2095.0	0.0	4926.26953125	30352.0	0.8375	856.0	0.5647773279352227	-131.0	-0.4473684210526316	28.0	-39.0	0.0	-0.8711770546104703	47.0	-0.5611131822386014	-139.0	
-0.053776405939544095	2039.0	1247.0	10.098549882236068	0.008662149247976508	2095.0	0.0	4945.80078125	30992.0	0.8375	856.0	0.5647773279352227	-131.0	-0.4473684210526316	28.0	-57.0	0.1529285823520416	-0.8492938955093507	45.0	-0.2846936448013418	-149.0	
-0.04188005761446513	2034.0	1247.0	10.097708524267773	0.06900524942728306	2094.0	0.0	4965.33203125	31632.0	0.8375	856.0	0.5647773279352227	-131.0	-0.4473684210526316	28.0	-38.0	0.1529285823520416	-0.9386630000125784	51.0	-0.5771325253507473	-149.0	
-0.01807170459191014	2037.0	1247.0	10.097591445570892	0.03309641307031799	2092.0	0.0	4984.86328125	32272.0	0.8375	856.0	0.5647773279352227	-131.0	-0.4473684210526316	28.0	-39.0	0.8869857776418414	-0.7067036975496197	34.0	-0.5594684486679928	-197.0	
-0.006049840921141275	2035.0	1246.0	10.109301622171586	0.057547220781208275	2091.0	0.0	5004.39453125	32912.0	0.8575	864.0	0.5809716599190283	-123.0	-0.36639676113360325	-12.0	-51.0	0.7799357699954123	-0.8273089658342048	42.0	-0.3765406974533398	-190.0	
-0.04187644460545041	2037.0	1247.0	10.098069825169244	0.03286793326214962	2094.0	0.0	5023.92578125	33552.0	0.8575	864.0	0.5809716599190283	-123.0	-0.36639676113360325	-12.0	-52.0	0.3211500229392874	-0.7629706679639672	39.0	-0.3605528308165125	-160.0	
-0.0179510065915732	2036.0	1246.0	10.109661245604585	0.04538720882207961	2092.0	0.0	5043.45703125	34192.0	0.8575	864.0	0.5809716599190283	-123.0	-0.36639676113360325	-12.0	-45.0	0.29056430646887904	-0.6376276686707157	31.0	-0.4667107864304543	-158.0	
-0.029853376598343334	2036.0	1246.0	10.109900435403762	0.045272968917995426	2093.0	0.0	5062.98828125	34832.0	0.87	869.0	0.5789473684210527	-124.0	-0.36639676113360325	-12.0	-40.0	0.1988071570576541	-0.7716169995413561	40.0	-0.5447730980297854	-152.0	
0.0056135417576314295	2039.0	1248.0	10.085163699572666	0.008988325071680264	2090.0	0.0	5082.51953125	35472.0	0.87	869.0	0.5789473684210527	-124.0	-0.36639676113360325	-12.0	-37.0	0.3211500229392874	-0.7606692255594889	39.0	-0.5906970712643413	-160.0	
-0.029974074598680275	2037.0	1247.0	10.097830635370068	0.03298217316623381	2093.0	0.0	5102.05078125	36112.0	0.87	869.0	0.5789473684210527	-124.0	-0.36639676113360325	-12.0	-41.0	0.3211500229392874	-0.7459022327203109	38.0	-0.5291714667034499	-160.0	
-0.006292441258153425	2036.0	1248.0	10.085041588470371	0.045011401332729545	2091.0	0.0	5121.58203125	36752.0	0.84	857.0	0.5708502024291499	-128.0	-0.39271255060728744	1.0	-58.0	0.22939287352806242	-0.8063634583823247	42.0	-0.26891985677194663	-154.0	
-0.029971665926003824	2039.0	1247.0	10.098071502637715	0.00889062905614485	2093.0	0.0	5141.11328125	37392.0	0.84	857.0	0.5708502024291499	-128.0	-0.39271255060728744	1.0	-50.0	0.6881786205841872	-0.7312013524737888	36.0	-0.39092410497786056	-184.0	
-0.0418752402691122	2038.0	1247.0	10.098190258803067	0.020822161207105144	2094.0	0.0	5160.64453125	38032.0	0.84	857.0	0.5708502024291499	-128.0	-0.39271255060728744	1.0	-45.0	0.7799357699954123	-0.44187061852977383	17.0	-0.46475321592904495	-190.0	
-0.06555807794597732	2038.0	1246.0	10.110858872068938	0.020838705095653942	2096.0	0.0	5180.17578125	38672.0	0.84	857.0	0.5708502024291499	-128.0	-0.39271255060728744	1.0	-43.0	0.2752714482336749	-0.7443741322152994	38.0	-0.49846721838214997	-157.0	
-0.04187885327812689	2035.0	1247.0	10.097828957901596	0.05695947737223858	2094.0	0.0	5199.70703125	39312.0	0.855	863.0	0.5607287449392713	-133.0	-0.38866396761133604	-1.0	-46.0	0.16822144058724578	-0.694410716106436	35.0	-0.45193413324668663	-150.0	
-0.02973147426166814	2036.0	1245.0	10.122090669071282	0.045517992614712566	2093.0	0.0	5219.23828125	39952.0	0.855	863.0	0.5607287449392713	-133.0	-0.38866396761133604	-1.0	-39.0	0.24468573176326658	-0.7425371079125883	38.0	-0.5598267827716226	-155.0	
-0.04187764894178865	2036.0	1247.0	10.09794939153542	0.0449137053171941	2094.0	0.0	5238.76953125	40592.0	0.855	863.0	0.5607287449392713	-133.0	-0.38866396761133604	-1.0	-43.0	0.0	-0.610318688752003	30.0	-0.49712666394751703	-139.0	
-0.0179510065915732	2036.0	1246.0	10.109661245604585	0.04538720882207961	2092.0	0.0	5258.30078125	41232.0	0.8575	864.0	0.5708502024291499	-128.0	-0.3805668016194332	-5.0	-38.0	0.030585716470408322	-0.610774847612027	30.0	-0.5738536438267418	-141.0	
-0.05389830827621929	2039.0	1248.0	10.086359648568548	0.008417125551259397	2095.0	0.0	5277.83203125	41872.0	0.8575	864.0	0.5708502024291499	-128.0	-0.3805668016194332	-5.0	-53.0	0.29056430646887904	-0.6542358154334765	32.0	-0.3441209986330827	-158.0	
-0.029972870262342063	2038.0	1247.0	10.09795106900389	0.02093640111118933	2093.0	0.0	5297.36328125	42512.0	0.8575	864.0	0.5708502024291499	-128.0	-0.3805668016194332	-5.0	-33.0	0.12234286588163329	-0.7674847272654741	40.0	-0.6521431609139008	-147.0	
-0.04175213359609878	2039.0	1246.0	10.11050092610441	0.009021412848777804	2094.0	0.0	5316.89453125	43152.0	0.8575	864.0	0.5708502024291499	-128.0	-0.3805668016194332	-5.0	-63.0	0.09175714941122497	-0.8016257273736583	42.0	-0.19215006117123545	-145.0	
-0.04187644460545041	2037.0	1247.0	10.098069825169244	0.03286793326214962	2094.0	0.0	5336.42578125	43792.0	0.8425	858.0	0.562753036437247	-132.0	-0.3967611336032389	3.0	-39.0	0.29056430646887904	-0.8827984647282138	47.0	-0.5612293963397789	-158.0	
-0.0179510065915732	2036.0	1246.0	10.109661245604585	0.04538720882207961	2092.0	0.0	5355.95703125	44432.0	0.8425	858.0	0.562753036437247	-132.0	-0.3967611336032389	3.0	-48.0	0.12234286588163329	-1.000496831875536	55.0	-0.4243060270881278	-147.0	
0.01750989008271038	2034.0	1248.0	10.084322341604372	0.06933142525098684	2089.0	0.0	5375.48828125	45072.0	0.8425	858.0	0.562753036437247	-132.0	-0.3967611336032389	3.0	-54.0	0.1988071570576541	-0.8045264340796137	42.0	-0.3302794211614191	-152.0	
-0.01856051827494913	2036.0	1251.0	10.04871007726699	0.04416209033849397	2092.0	0.0	5395.01953125	45712.0	0.845	859.0	0.5688259109311741	-129.0	-0.4109311740890688	10.0	-45.0	0.29056430646887904	-0.776054065994066	40.0	-0.4680950504036879	-158.0	
-0.03009718127169371	2036.0	1248.0	10.085519968068725	0.044782921524561176	2093.0	0.0	5414.55078125	46352.0	0.845	859.0	0.5688259109311741	-129.0	-0.4109311740890688	10.0	-49.0	0.21410001529285827	-0.8505130722166627	45.0	-0.4074617058334142	-153.0	
-0.041999551278463845	2036.0	1248.0	10.085759157867901	0.04466868162047699	2094.0	0.0	5434.08203125	46992.0	0.845	859.0	0.5688259109311741	-129.0	-0.4109311740890688	10.0	-40.0	0.5352500382321457	-0.7696926583376691	39.0	-0.5447538546177485	-174.0	
-0.053777610275882334	2038.0	1247.0	10.098429448602245	0.020707921303020987	2095.0	0.0	5453.61328125	47632.0	0.8675	868.0	0.5708502024291499	-128.0	-0.41295546558704455	11.0	-36.0	0.29056430646887904	-0.66700822485544	33.0	-0.6051049449154258	-158.0	
-0.03009718127169371	2036.0	1248.0	10.085519968068725	0.044782921524561176	2093.0	0.0	5473.14453125	48272.0	0.8675	868.0	0.5708502024291499	-128.0	-0.41295546558704455	11.0	-47.0	0.12234286588163329	-0.8157748726174372	43.0	-0.4378032911536717	-147.0	
-0.029971665926003824	2039.0	1247.0	10.098071502637715	0.00889062905614485	2093.0	0.0	5492.67578125	48912.0	0.8675	868.0	0.5708502024291499	-128.0	-0.41295546558704455	11.0	-53.0	-0.015292858235204161	-0.9188555467983418	50.0	-0.3467671959467314	-138.0	
0.00572942241261544	2034.0	1247.0	10.096751765071067	0.06946220904361977	2090.0	0.0	5512.20703125	49552.0	0.8675	868.0	0.5708502024291499	-128.0	-0.41295546558704455	11.0	-35.0	0.13763572411683744	-0.6761189745345961	34.0	-0.6205405360703422	-148.0	
-0.006051045257479515	2034.0	1246.0	10.109181188537761	0.06959299283625275	2091.0	0.0	5531.73828125	50192.0	0.8475	860.0	0.5728744939271255	-127.0	-0.4109311740890688	10.0	-50.0	0.6270071876433706	-0.7287547398174218	36.0	-0.39089963885129686	-180.0	
-0.053656912275545365	2037.0	1246.0	10.110499248635938	0.032998717054782606	2095.0	0.0	5551.26953125	50832.0	0.8475	860.0	0.5728744939271255	-127.0	-0.4109311740890688	10.0	-48.0	0.42820003058571654	-0.7973999437654931	41.0	-0.42227505820702743	-167.0	
-0.06568118461899071	2037.0	1247.0	10.098548204767596	0.03263945345398128	2096.0	0.0	5570.80078125	51472.0	0.8475	860.0	0.5728744939271255	-127.0	-0.4109311740890688	10.0	-43.0	0.25997858999847073	-0.6976203466100909	35.0	-0.4979996805260979	-156.0	
-0.0180705002555719	2038.0	1247.0	10.097711879204715	0.021050641015273514	2092.0	0.0	5590.33203125	52112.0	0.8300000000000001	853.0	0.5587044534412956	-134.0	-0.4271255060728745	18.0	-48.0	0.3058571647040832	-0.7309838751979367	37.0	-0.42161089752135184	-159.0	
-0.01807290892824838	2036.0	1247.0	10.097471011937067	0.04514218512536247	2092.0	0.0	5609.86328125	52752.0	0.8300000000000001	853.0	0.5587044534412956	-134.0	-0.4271255060728745	18.0	-45.0	0.3517357394096957	-0.5477900164448493	25.0	-0.46581240990819567	-162.0	
-0.04187764894178865	2036.0	1247.0	10.09794939153542	0.0449137053171941	2094.0	0.0	5629.39453125	53392.0	0.8300000000000001	853.0	0.5587044534412956	-134.0	-0.4271255060728745	18.0	-36.0	0.13763572411683744	-0.6301302715871112	31.0	-0.6047361653827424	-148.0	
-0.041999551278463845	2036.0	1248.0	10.085759157867901	0.04466868162047699	2094.0	0.0	5648.92578125	54032.0	0.855	863.0	0.5809716599190283	-123.0	-0.40890688259109315	9.0	-24.0	0.21410001529285827	-0.83129662406216	44.0	-0.7908816328049918	-153.0	
-0.053780018948558786	2036.0	1247.0	10.098188581334597	0.044799465413109946	2095.0	0.0	5668.45703125	54672.0	0.855	863.0	0.5809716599190283	-123.0	-0.40890688259109315	9.0	-36.0	0.09175714941122497	-0.8897673959278308	48.0	-0.6073325366261496	-145.0	
-0.006168130248801751	2038.0	1247.0	10.097472689405539	0.021164880919357698	2091.0	0.0	5687.98828125	55312.0	0.855	863.0	0.5809716599190283	-123.0	-0.40890688259109315	9.0	-39.0	0.09175714941122497	-0.6748977330168484	34.0	-0.5591503890226651	-145.0	
-0.01806929591923366	2039.0	1247.0	10.09783231283854	0.009004868960229034	2092.0	0.0	5707.51953125	55952.0	0.855	863.0	0.5809716599190283	-123.0	-0.40890688259109315	9.0	-42.0	0.13763572411683744	-0.7848579566859584	41.0	-0.5142165402849815	-148.0	
-0.006048636584803049	2036.0	1246.0	10.109422055805409	0.045501448726163796	2091.0	0.0	5727.05078125	56592.0	0.85	861.0	0.5931174089068826	-117.0	-0.4068825910931174	8.0	-42.0	0.3976143141153082	-0.6414489523384624	31.0	-0.5127824502415065	-165.0	
-0.04188005761446513	2034.0	1247.0	10.097708524267773	0.06900524942728306	2094.0	0.0	5746.58203125	57232.0	0.85	861.0	0.5931174089068826	-117.0	-0.4068825910931174	8.0	-52.0	0.5811286129377581	-0.7887494825672327	40.0	-0.3608106189625452	-177.0	
-0.04188126195080337	2033.0	1247.0	10.097588090633948	0.08105102148232757	2094.0	0.0	5766.11328125	57872.0	0.85	861.0	0.5931174089068826	-117.0	-0.4068825910931174	8.0	-58.0	0.24468573176326658	-0.7915944007327108	41.0	-0.2687721661954506	-155.0	
-0.04187764894178865	2036.0	1247.0	10.09794939153542	0.0449137053171941	2094.0	0.0	5785.64453125	58512.0	0.8325	854.0	0.5931174089068826	-117.0	-0.4149797570850203	12.0	-38.0	0.2752714482336749	-0.7897491171882566	41.0	-0.5756433865225041	-157.0	
-0.00604743224846481	2037.0	1246.0	10.109542489439233	0.03345567667111932	2091.0	0.0	5805.17578125	59152.0	0.8325	854.0	0.5931174089068826	-117.0	-0.4149797570850203	12.0	-42.0	0.24468573176326658	-0.6045709990701337	29.0	-0.5124136707088233	-155.0	
-0.0061693345851399906	2037.0	1247.0	10.097352255771716	0.03321065297440218	2091.0	0.0	5824.70703125	59792.0	0.8325	854.0	0.5931174089068826	-117.0	-0.4149797570850203	12.0	-39.0	0.5505428964673498	-0.4317752441066061	17.0	-0.5567191641335627	-175.0	
-0.01794980225523496	2037.0	1246.0	10.10978167923841	0.03334143676703513	2092.0	0.0	5844.23828125	60432.0	0.8325	854.0	0.5931174089068826	-117.0	-0.4149797570850203	12.0	-30.0	0.015292858235204161	-0.9319306855866976	51.0	-0.6998210714714878	-140.0	
-0.06568118461899071	2037.0	1247.0	10.098548204767596	0.03263945345398128	2096.0	0.0	5863.76953125	61072.0	0.85	861.0	0.5890688259109311	-119.0	-0.3785425101214575	-6.0	-42.0	0.061171432940816645	-0.6279925827284437	31.0	-0.5126478865454064	-143.0	
-0.0297302699253299	2037.0	1245.0	10.122211102705105	0.03347222055966809	2093.0	0.0	5883.30078125	61712.0	0.85	861.0	0.5890688259109311	-119.0	-0.3785425101214575	-6.0	-44.0	-0.030585716470408322	-0.7015330767996849	36.0	-0.4826943241698689	-137.0	
-0.006051045257479515	2034.0	1246.0	10.109181188537761	0.06959299283625275	2091.0	0.0	5902.83203125	62352.0	0.85	861.0	0.5890688259109311	-119.0	-0.3785425101214575	-6.0	-37.0	0.382321455880104	-0.7631158382158559	39.0	-0.590721537390905	-164.0	
-0.0059267342481278545	2036.0	1245.0	10.121612289472928	0.045746472422880935	2091.0	0.0	5922.36328125	62992.0	0.85	861.0	0.576923076923077	-125.0	-0.42105263157894735	15.0	-47.0	0.5046643217617374	-0.7387819368374977	37.0	-0.4370333617958723	-172.0	
-0.05390071694889574	2037.0	1248.0	10.0861187813009	0.032508669661348355	2095.0	0.0	5941.89453125	63632.0	0.85	861.0	0.576923076923077	-125.0	-0.42105263157894735	15.0	-29.0	0.16822144058724578	-0.537995306577638	25.0	-0.711226201339522	-150.0	
-0.07758475896209908	2036.0	1247.0	10.098666960932949	0.044570985604941576	2097.0	0.0	5961.42578125	64272.0	0.85	861.0	0.576923076923077	-125.0	-0.42105263157894735	15.0	-42.0	0.1988071570576541	-0.7257817260875031	37.0	-0.513625777978997	-152.0	
-0.029975278935018515	2036.0	1247.0	10.097710201736245	0.04502794522127829	2093.0	0.0	5980.95703125	64912.0	0.8375	856.0	0.5809716599190283	-123.0	-0.3724696356275304	-9.0	-38.0	0.29056430646887904	-0.7595993487249372	39.0	-0.575341888837871	-158.0	
-0.006291236921815185	2037.0	1248.0	10.085162022104196	0.032965629277685066	2091.0	0.0	6000.48828125	16.0	0.8375	856.0	0.5809716599190283	-123.0	-0.3724696356275304	-9.0	-29.0	0.3517357394096957	-0.7145229634975006	36.0	-0.7129914779087206	-162.0	
-0.01794739358255848	2039.0	1246.0	10.110022546506057	0.009249892656946174	2092.0	0.0	6020.01953125	656.0	0.8375	856.0	0.5809716599190283	-123.0	-0.3724696356275304	-9.0	-61.0	0.10705000764642914	-0.740407678295664	38.0	-0.22222684799670533	-146.0	
-0.053778814612220546	2037.0	1247.0	10.09830901496842	0.03275369335806547	2095.0	0.0	6039.55078125	1296.0	0.8375	856.0	0.5809716599190283	-123.0	-0.3724696356275304	-9.0	-48.0	0.10705000764642914	-0.6922709624373328	35.0	-0.42122376839374576	-146.0	
-0.029977687607694994	2034.0	1247.0	10.097469334468597	0.06911948933136725	2093.0	0.0	6059.08203125	1936.0	0.8475	860.0	0.582995951417004	-122.0	-0.3582995951417004	-16.0	-49.0	0.030585716470408322	-0.827792523433856	44.0	-0.4072345003455861	-141.0	
-0.018074113264586605	2035.0	1247.0	10.097350578303244	0.05718795718040695	2092.0	0.0	6078.61328125	2576.0	0.8475	860.0	0.582995951417004	-122.0	-0.3582995951417004	-16.0	-48.0	0.22939287352806242	-0.8048291634460059	42.0	-0.4223493504038325	-154.0	
-0.006171743257816456	2035.0	1247.0	10.097111388504068	0.057302197084491135	2091.0	0.0	6098.14453125	3216.0	0.8475	860.0	0.582995951417004	-122.0	-0.3582995951417004	-16.0	-47.0	0.48937146352653316	-0.6920281512322891	34.0	-0.43656582393982024	-171.0	
-0.006049840921141275	2035.0	1246.0	10.109301622171586	0.057547220781208275	2091.0	0.0	6117.67578125	3856.0	0.8625	866.0	0.5890688259109311	-119.0	-0.36639676113360325	-12.0	-47.0	0.21410001529285827	-0.5579727077689929	26.0	-0.4352252695051873	-153.0	
-0.06568238895532895	2036.0	1247.0	10.098427771133773	0.04468522550902576	2096.0	0.0	6137.20703125	4496.0	0.8625	866.0	0.5890688259109311	-119.0	-0.36639676113360325	-12.0	-44.0	-0.015292858235204161	-0.7482868624048934	39.0	-0.48316186202592104	-138.0	
-0.053780018948558786	2036.0	1247.0	10.098188581334597	0.044799465413109946	2095.0	0.0	6156.73828125	5136.0	0.8625	866.0	0.5890688259109311	-119.0	-0.36639676113360325	-12.0	-57.0	-0.16822144058724578	-0.759545624994896	40.0	-0.2837961620961973	-128.0	
-0.01807170459191014	2037.0	1247.0	10.097591445570892	0.03309641307031799	2092.0	0.0	6176.26953125	5776.0	0.8625	866.0	0.5890688259109311	-119.0	-0.36639676113360325	-12.0	-41.0	0.25997858999847073	-0.6973134876228271	35.0	-0.5286855792524751	-156.0	
0.005731831085291905	2036.0	1247.0	10.096992632338715	0.04537066493353081	2090.0	0.0	6195.80078125	6416.0	0.8325	854.0	0.576923076923077	-125.0	-0.4251012145748988	17.0	-43.0	0.36702859764489987	-0.7019019187587332	35.0	-0.4980424962475843	-163.0	
-0.029852172262005094	2037.0	1246.0	10.110020869037585	0.03322719686295095	2093.0	0.0	6215.33203125	7056.0	0.8325	854.0	0.576923076923077	-125.0	-0.4251012145748988	17.0	-41.0	0.18351429882244993	-0.6942552218023683	35.0	-0.5286549965942705	-151.0	
-0.06555807794597732	2038.0	1246.0	10.110858872068938	0.020838705095653942	2096.0	0.0	6234.86328125	7696.0	0.8325	854.0	0.576923076923077	-125.0	-0.4251012145748988	17.0	-37.0	0.09175714941122497	-0.659210163215879	33.0	-0.5896824806409052	-145.0	
-0.029975278935018515	2036.0	1247.0	10.097710201736245	0.04502794522127829	2093.0	0.0	6254.39453125	8336.0	0.85	861.0	0.5870445344129555	-120.0	-0.3724696356275304	-9.0	-40.0	0.36702859764489987	-0.7783451843463655	40.0	-0.5448403798778354	-163.0	
0.005975635758642281	2036.0	1245.0	10.121373099673752	0.04586071232696509	2090.0	0.0	6273.92578125	8976.0	0.85	861.0	0.5870445344129555	-120.0	-0.3724696356275304	-9.0	-40.0	0.3211500229392874	-0.6227031167170343	30.0	-0.543283959201542	-160.0	
-0.0059267342481278545	2036.0	1245.0	10.121612289472928	0.045746472422880935	2091.0	0.0	6293.45703125	9616.0	0.85	861.0	0.5870445344129555	-120.0	-0.3724696356275304	-9.0	-43.0	0.18351429882244993	-0.6638006591622209	33.0	-0.49766148365161916	-151.0	
-0.02960836758865472	2037.0	1244.0	10.134401336372624	0.0337172442563852	2093.0	0.0	6312.98828125	10256.0	0.88	873.0	0.5809716599190283	-123.0	-0.36639676113360325	-12.0	-40.0	0.1988071570576541	-0.6793327346591226	34.0	-0.543850255380963	-152.0	
-0.05389951261255753	2038.0	1248.0	10.086239214934725	0.020462897606303876	2095.0	0.0	6332.51953125	10896.0	0.88	873.0	0.5809716599190283	-123.0	-0.36639676113360325	-12.0	-46.0	0.1988071570576541	-0.7571568656894417	39.0	-0.45256159474251667	-152.0	
-0.05389830827621929	2039.0	1248.0	10.086359648568548	0.008417125551259397	2095.0	0.0	6352.05078125	11536.0	0.88	873.0	0.5809716599190283	-123.0	-0.36639676113360325	-12.0	-49.0	0.18351429882244993	-0.8031476334473624	42.0	-0.40698805144572114	-151.0	
-0.01807290892824838	2036.0	1247.0	10.097471011937067	0.04514218512536247	2092.0	0.0	6371.58203125	12176.0	0.88	873.0	0.5809716599190283	-123.0	-0.36639676113360325	-12.0	-52.0	0.10705000764642914	-0.662123258784449	33.0	-0.3595443567247173	-146.0	
-0.0181960156012618	2035.0	1248.0	10.085160344635725	0.05694293348368984	2092.0	0.0	6391.11328125	12816.0	0.855	863.0	0.5809716599190283	-123.0	-0.37449392712550605	-8.0	-47.0	0.22939287352806242	-0.6816300474427293	34.0	-0.43646184290192463	-154.0	
-0.018193606928585335	2037.0	1248.0	10.085401211903372	0.03285138937360088	2092.0	0.0	6410.64453125	13456.0	0.855	863.0	0.5809716599190283	-123.0	-0.37449392712550605	-8.0	-46.0	0.09175714941122497	-0.7682560043545051	40.0	-0.45267258612916733	-145.0	
-0.041997142605787394	2038.0	1248.0	10.086000025135547	0.020577137510388033	2094.0	0.0	6430.17578125	14096.0	0.855	863.0	0.5809716599190283	-123.0	-0.37449392712550605	-8.0	-47.0	0.12234286588163329	-0.8465362942448483	45.0	-0.43811090536994585	-147.0	
-0.018075317600924845	2034.0	1247.0	10.097230144669421	0.06923372923545143	2092.0	0.0	6449.70703125	14736.0	0.8250000000000001	851.0	0.5809716599190283	-123.0	-0.41700404858299595	13.0	-56.0	0.0	-0.7661203803062734	40.0	-0.299206393307436	-139.0	
-0.04187885327812689	2035.0	1247.0	10.097828957901596	0.05695947737223858	2094.0	0.0	6469.23828125	15376.0	0.8250000000000001	851.0	0.5809716599190283	-123.0	-0.41700404858299595	13.0	-43.0	0.030585716470408322	-0.8268719464720646	44.0	-0.4992921965247176	-141.0	
-0.00617053892147823	2036.0	1247.0	10.097231822137891	0.045256425029446656	2091.0	0.0	6488.76953125	16016.0	0.8250000000000001	851.0	0.5809716599190283	-123.0	-0.41700404858299595	13.0	-42.0	-0.45878574705612485	-0.7148613508452631	38.0	-0.5135165742265746	-109.0	
-0.029972870262342063	2038.0	1247.0	10.09795106900389	0.02093640111118933	2093.0	0.0	6508.30078125	16656.0	0.8250000000000001	851.0	0.5809716599190283	-123.0	-0.41700404858299595	13.0	-51.0	-0.25997858999847073	-1.0318079236952544	58.0	-0.3785856870319503	-122.0	
-0.029852172262005094	2037.0	1246.0	10.110020869037585	0.03322719686295095	2093.0	0.0	6527.83203125	17296.0	0.8625	866.0	0.5789473684210527	-124.0	-0.3603238866396761	-15.0	-58.0	-0.3517357394096957	-0.813882059774249	44.0	-0.2689950427858659	-116.0	
-0.029975278935018515	2036.0	1247.0	10.097710201736245	0.04502794522127829	2093.0	0.0	6547.36328125	17936.0	0.8625	866.0	0.5789473684210527	-124.0	-0.3603238866396761	-15.0	-51.0	-0.10705000764642914	-0.7764523715031771	41.0	-0.37603213151002957	-132.0	
-0.006291236921815185	2037.0	1248.0	10.085162022104196	0.032965629277685066	2091.0	0.0	6566.89453125	18576.0	0.8625	866.0	0.5789473684210527	-124.0	-0.3603238866396761	-15.0	-47.0	-0.1988071570576541	-0.6952651804755712	36.0	-0.4365981942322531	-126.0	
-0.03022028794470713	2035.0	1249.0	10.073209300767383	0.056583669882888515	2093.0	0.0	6586.42578125	19216.0	0.8525	862.0	0.5809716599190283	-123.0	-0.3825910931174089	-4.0	-50.0	-0.1529285823520416	-0.7129411392624477	37.0	-0.39074150284574716	-129.0	
-0.04175815527778995	2034.0	1246.0	10.10989875793529	0.0692502731240002	2094.0	0.0	6605.95703125	19856.0	0.8525	862.0	0.5809716599190283	-123.0	-0.3825910931174089	-4.0	-47.0	-0.4434928888209207	-1.1161386326338594	64.0	-0.440806928753836	-110.0	
-1.8631527519061768	2062.0	1249.0	10.113296237953763	-0.28624512083227566	2247.0	0.0	6625.48828125	20496.0	0.8525	862.0	0.5809716599190283	-123.0	-0.3825910931174089	-4.0	-43.0	-0.25997858999847073	-32.56103765584265	2108.0	-0.8166338536184234	-122.0	
-2.197372652735054	2080.0	1257.0	10.024639488399373	-0.5082279247111703	2275.0	0.0	6645.01953125	21136.0	0.8425	858.0	0.5587044534412956	-134.0	-0.4068825910931174	8.0	-44.0	0.5199571799969415	-5.353146545632369	337.0	-0.5292104588581957	-173.0	
-1.433828567341784	2050.0	1242.0	10.188571837250166	-0.13586805374769165	2211.0	0.0	6664.55078125	21776.0	0.8425	858.0	0.5587044534412956	-134.0	-0.4068825910931174	8.0	-42.0	0.0764642911760208	4.2470810920521345	-286.0	-0.46389714979760055	-144.0	
-2.148861418531204	2019.0	1249.0	10.113858146879576	0.2289813198366168	2271.0	0.0	6684.08203125	22416.0	0.8425	858.0	0.5587044534412956	-134.0	-0.4068825910931174	8.0	-40.0	-1.4834072488148036	1.9872892409072147	-135.0	-0.5171840356252996	-42.0	
-3.279935415475658	2033.0	1252.0	10.101696547672294	0.048752649087845906	2366.0	0.0	6703.61328125	23056.0	0.8425	858.0	0.5587044534412956	-134.0	-0.4068825910931174	8.0	-5.0	-1.804557271754091	-9.191653482747409	593.0	-1.1660303908962175	-21.0	
-4.149363742518033	2078.0	1257.0	10.06362574819663	-0.5028717248708863	2439.0	0.0	6723.14453125	23696.0	0.9475	900.0	0.5404858299595142	-143.0	-0.2651821862348178	-62.0	-24.0	-2.4315644593974617	-16.890607691878856	1095.0	-0.9514747434831587	20.0	
-5.301834805517493	2168.0	1241.0	10.292709924441159	-1.5941521013735807	2536.0	0.0	6742.67578125	24336.0	0.9475	900.0	0.5404858299595142	-143.0	-0.2651821862348178	-62.0	-115.0	1.1163786511699039	-13.801143328176765	884.0	0.47576791304322863	-212.0	
-4.543187287308981	2121.0	1266.0	9.966985554816196	-1.026815053343031	2472.0	0.0	6762.20703125	24976.0	0.9475	900.0	0.5404858299595142	-143.0	-0.2651821862348178	-62.0	32.0	0.5352500382321457	23.92739512120129	-1566.0	-1.402585800207352	-174.0	
-3.2584239374685198	2052.0	1271.0	9.871891967433731	-0.1845439903874563	2364.0	0.0	6781.73828125	25616.0	0.9375	896.0	0.42105263157894735	-202.0	-0.2165991902834008	-86.0	-117.0	1.91160727940052	36.16943470366005	-2367.0	1.0061626606778467	-264.0	
-2.863614334957127	2018.0	1254.0	10.067137932858731	0.23294757916302505	2331.0	0.0	6801.26953125	26256.0	0.9375	896.0	0.42105263157894735	-202.0	-0.2165991902834008	-86.0	67.0	0.5811286129377581	29.68331603831202	-1940.0	-1.8820835190706164	-177.0	
-3.4693776431728285	2050.0	1244.0	10.205092825574267	-0.15589312473952005	2382.0	0.0	6820.80078125	26896.0	0.9375	896.0	0.42105263157894735	-202.0	-0.2165991902834008	-86.0	2.0	-2.5997858999847074	-1.0223774913089592	64.0	-1.1917490165887072	31.0	
-4.431894782401653	2143.0	1232.0	10.38195033126337	-1.2824630737288696	2463.0	0.0	6840.33203125	27536.0	0.785	835.0	0.43724696356275305	-194.0	-0.25708502024291496	-66.0	63.0	-6.958250497017893	-8.021489090431771	531.0	-2.197753635725555	316.0	
-2.8983534523020653	2012.0	1246.0	10.164654769793469	0.30683968135477646	2334.0	0.0	6859.86328125	28176.0	0.785	835.0	0.43724696356275305	-194.0	-0.25708502024291496	-66.0	118.0	0.8411072029362289	3.3797273472611358	-230.0	-2.9276880725454952	-194.0	
-0.7917989551820885	1875.0	1246.0	10.10581876750543	1.9773309159187695	2157.0	0.0	6879.39453125	28816.0	0.785	835.0	0.43724696356275305	-194.0	-0.25708502024291496	-66.0	-33.0	1.605750114696437	14.784606391728795	-975.0	-0.4966222497239582	-244.0	
-4.251937616062011	2210.0	1221.0	10.52052410808462	-2.0851209421916987	2448.0	0.0	6898.92578125	29456.0	0.785	835.0	0.43724696356275305	-194.0	-0.25708502024291496	-66.0	-8.0	6.514757608196972	-14.23135060148813	899.0	-1.1703939111092498	-565.0	
-4.526201413618513	2192.0	1225.0	10.475096733386772	-1.8719046577817027	2471.0	0.0	6918.45703125	30096.0	0.7125	806.0	0.52834008097166	-149.0	-0.2834008097165992	-53.0	-141.0	4.679614619972473	5.585855051161517	-386.0	1.068594471947859	-445.0	
-3.6261413142516705	2184.0	1262.0	10.004916193880591	-1.7759221254094832	2395.0	0.0	6937.98828125	30736.0	0.7125	806.0	0.52834008097166	-149.0	-0.2834008097165992	-53.0	113.0	-0.3517357394096957	25.636415561582997	-1674.0	-2.628398772111652	-116.0	
-3.423940051548502	2271.0	1264.0	9.986947226102219	-2.822452263222356	2378.0	0.0	6957.51953125	31376.0	0.7125	806.0	0.52834008097166	-149.0	-0.2834008097165992	-53.0	253.0	13.274200948157212	41.84712608679738	-2762.0	-4.614519378996995	-1007.0	
-1.0755502227687967	1939.0	1231.0	10.302120580263157	1.2073351021486594	2181.0	0.0	6977.05078125	32016.0	0.75	821.0	0.5587044534412956	-134.0	-0.2793522267206478	-55.0	9.0	-18.96314421165316	60.586922355439874	-3899.0	-0.6830674037280934	1101.0	
-1.256811244751893	2004.0	1254.0	10.033161239096406	0.4170107749850116	2196.0	0.0	6996.58203125	32656.0	0.75	821.0	0.5587044534412956	-134.0	-0.2793522267206478	-55.0	54.0	-3.027985930570424	26.026636030635178	-1693.0	-1.7191720315917611	59.0	
-1.1648326271490477	2111.0	1184.0	10.897689666047626	-0.8539354968059596	2189.0	0.0	7016.11328125	33296.0	0.75	821.0	0.5587044534412956	-134.0	-0.2793522267206478	-55.0	125.0	-18.22908701636336	0.29835514591258433	20.0	-3.0659131801658557	1053.0	
-3.204255142384432	2235.0	1219.0	10.526866713937741	-2.375722084614969	2360.0	0.0	7035.64453125	33936.0	0.75	821.0	0.5587044534412956	-134.0	-0.2793522267206478	-55.0	5.0	24.850894632206764	-26.513641982909824	1650.0	-1.4926951124790908	-1764.0	
-1.5150887384046072	2138.0	1226.0	10.395888064301184	-1.1927752947727213	2218.0	0.0	7055.17578125	34576.0	0.055	543.0	0.7935222672064778	-18.0	-1.040485829959514	321.0	-349.0	-3.8079217005658363	25.980617545256504	-1692.0	4.464194697778789	110.0	
-0.5367052274487031	2134.0	1304.0	9.424715350367793	-1.1542221428574926	2135.0	0.0	7074.70703125	35216.0	0.055	543.0	0.7935222672064778	-18.0	-1.040485829959514	321.0	91.0	1.039914359993883	55.41595865337958	-3614.0	-1.9930247007149382	-207.0	
0.3923572904769071	2154.0	1201.0	10.664300476262136	-1.3611036705820365	2058.0	0.0	7094.23828125	35856.0	0.055	543.0	0.7935222672064778	-18.0	-1.040485829959514	321.0	-64.0	-2.2480501605750116	64.7059668679286	-4211.0	0.47827034843991195	8.0	
1.31024195370869	2039.0	1286.0	9.595623942297564	0.012243814045688778	1980.0	0.0	7113.76953125	36496.0	0.3625	666.0	0.44534412955465585	-190.0	-0.868421052631579	236.0	61.0	6.942957638782689	49.62282104348349	-3253.0	-1.5906215670701527	-593.0	
2.1165234771837564	2077.0	1214.0	10.461871527899412	-0.4201997443087284	1913.0	0.0	7133.30078125	37136.0	0.3625	666.0	0.44534412955465585	-190.0	-0.868421052631579	236.0	68.0	-26.211959015139932	70.94488316750711	-4553.0	-1.4848123314367903	1575.0	
3.2955213761598885	2057.0	1306.0	9.31404237789358	-0.19040249289739697	1813.0	0.0	7152.83203125	37776.0	0.3625	666.0	0.44534412955465585	-190.0	-0.868421052631579	236.0	37.0	16.378651169903655	58.88545441358511	-3880.0	-1.1297276255741384	-1210.0	
4.656523427191628	2111.0	1175.0	10.890437957258111	-0.7958669704383432	1700.0	0.0	7172.36328125	38416.0	0.8075	844.0	0.47975708502024295	-173.0	-0.31983805668016196	-35.0	-120.0	-14.237651016975073	51.16508334564736	-3300.0	1.2021525980720944	792.0	
5.089555765439599	2178.0	1236.0	10.146052734436129	-1.6136532671749537	1663.0	0.0	7191.89453125	39056.0	0.8075	844.0	0.47975708502024295	-173.0	-0.31983805668016196	-35.0	148.0	19.039608502829182	49.829103032435924	-3297.0	-2.923528825437495	-1384.0	
5.908874204598316	1980.0	1250.0	9.935039507450615	0.775861821351622	1594.0	0.0	7211.42578125	39696.0	0.8075	844.0	0.47975708502024295	-173.0	-0.31983805668016196	-35.0	60.0	-9.48157210582658	49.44902472828431	-3199.0	-1.5770150465640191	481.0	
6.878872211175353	1823.0	1200.0	10.506268736582964	2.68855265106028	1513.0	0.0	7230.95703125	40336.0	0.8075	844.0	0.47975708502024295	-173.0	-0.31983805668016196	-35.0	-27.0	9.374522098180151	37.74582262246852	-2488.0	-0.35907698936531024	-752.0	
6.076576805987395	1957.0	1241.0	10.038632979691872	1.0567191505452775	1580.0	0.0	7250.48828125	40976.0	0.72	809.0	0.5323886639676113	-147.0	-0.39271255060728744	1.0	-125.0	3.7467502676250195	6.902219763606789	-469.0	0.8362463805423132	-384.0	
6.825487027810659	1987.0	1249.0	9.92965516201833	0.7005829132775092	1517.0	0.0	7270.01953125	41616.0	0.72	809.0	0.5323886639676113	-147.0	-0.39271255060728744	1.0	1.0	2.385685884691849	-9.712082221461987	616.0	-1.2633015802321126	-295.0	
5.792051708242284	2087.0	1233.0	10.157551776609331	-0.5100127847347881	1604.0	0.0	7289.55078125	42256.0	0.72	809.0	0.5323886639676113	-147.0	-0.39271255060728744	1.0	21.0	-3.1809145129224654	-15.454087675577716	1004.0	-1.6276113079357681	69.0	
6.361081339794438	2077.0	1154.0	11.1081339794438	-0.3648289166517338	1557.0	0.0	7309.08203125	42896.0	0.7275	812.0	0.5708502024291499	-128.0	-0.4190283400809717	14.0	431.0	-0.33644288117449156	-2.9235276260985414	186.0	-7.793544007272187	-117.0	
5.568121219745359	1938.0	1311.0	9.193074355488307	1.2636390848493884	1622.0	0.0	7328.61328125	43536.0	0.7275	812.0	0.5708502024291499	-128.0	-0.4190283400809717	14.0	293.0	-2.9056430646887907	2.172168560615694	-140.0	-5.625048300583808	51.0	
2.206246257427003	1967.0	1258.0	9.910340028414568	0.8949680583232843	1905.0	0.0	7348.14453125	44176.0	0.7275	812.0	0.5708502024291499	-128.0	-0.4190283400809717	14.0	110.0	2.5692001835142992	-11.271530747623181	718.0	-2.951444784229339	-307.0	
2.1477924609273784	2137.0	1251.0	10.017341330833107	-1.1516692246776785	1910.0	0.0	7367.67578125	44816.0	0.7275	812.0	0.5708502024291499	-128.0	-0.4190283400809717	14.0	-67.0	2.263343018810216	-4.688129765634495	289.0	-0.16963716692134417	-287.0	
2.1954130443480167	2045.0	1250.0	10.017494910992143	-0.04275621230053239	1906.0	0.0	7387.20703125	45456.0	0.7575000000000001	824.0	0.5931174089068826	-117.0	-0.4190283400809717	14.0	-77.0	-2.5997858999847074	3.0721513659535127	-203.0	0.06141048097578494	31.0	
2.004878512966122	2066.0	1251.0	10.01166082042174	-0.29779028761853044	1922.0	0.0	7406.73828125	46096.0	0.7575000000000001	824.0	0.5931174089068826	-117.0	-0.4190283400809717	14.0	-69.0	-1.1163786511699039	8.120444435135921	-535.0	-0.010862457597390227	-66.0	
0.7321842602801345	2071.0	1244.0	10.12318793277535	-0.36852765175373986	2029.0	0.0	7426.26953125	46736.0	0.7575000000000001	824.0	0.5931174089068826	-117.0	-0.4190283400809717	14.0	-41.0	1.7128001223428662	3.1205185868422634	-217.0	-0.4905072585078242	-251.0	
0.053237473820770834	2051.0	1248.0	10.085652143981847	-0.13510397997251677	2086.0	0.0	7445.80078125	47376.0	0.745	819.0	0.5789473684210527	-124.0	-0.4149797570850203	12.0	-15.0	6.28536473466891	0.7883239436944749	-77.0	-0.9127857800505496	-550.0	
-0.03009115959000254	2041.0	1248.0	10.086122136237844	-0.01544593875066122	2093.0	0.0	7465.33203125	48016.0	0.745	819.0	0.5789473684210527	-124.0	-0.4149797570850203	12.0	-49.0	3.8690931335066527	1.7718297680324127	-135.0	-0.3812382774309234	-392.0	
-0.04174852058708406	2042.0	1246.0	10.11086222700588	-0.027115903316355633	2094.0	0.0	7484.86328125	48656.0	0.745	819.0	0.5789473684210527	-124.0	-0.4149797570850203	12.0	-48.0	3.762043125860224	1.3456048668909302	-107.0	-0.40084501010046314	-385.0	
-0.11315912761869018	2045.0	1246.0	10.112658666702409	-0.06393865890599412	2100.0	0.0	7504.39453125	49296.0	0.7525000000000001	822.0	0.582995951417004	-122.0	-0.40890688259109315	9.0	-44.0	3.8690931335066527	1.5726476749223994	-122.0	-0.4599525166526481	-392.0	
-0.22028286635229793	2043.0	1246.0	10.114570507627347	-0.04087527393266274	2109.0	0.0	7523.92578125	49936.0	0.7525000000000001	822.0	0.582995951417004	-122.0	-0.40890688259109315	9.0	-40.0	1.9421929958709285	0.6659641994953309	-58.0	-0.5303972860394184	-266.0	
-0.14886985064801533	2042.0	1246.0	10.113014935198466	-0.02814406245311321	2103.0	0.0	7543.45703125	50576.0	0.7525000000000001	822.0	0.582995951417004	-122.0	-0.40890688259109315	9.0	-42.0	-1.055207218229087	-1.0909053586020296	64.0	-0.5172770143041423	-70.0	
-0.08959939661483853	2044.0	1248.0	10.087679386135195	-0.05215445443621558	2098.0	0.0	7562.98828125	51216.0	0.7525000000000001	822.0	0.582995951417004	-122.0	-0.40890688259109315	9.0	-26.0	-0.5505428964673498	-1.2009193060011811	70.0	-0.7638888923081323	-103.0	
0.04145580181433765	2050.0	1247.0	10.097961133814717	-0.1229274241248394	2087.0	0.0	7582.51953125	51856.0	0.76	825.0	0.5890688259109311	-119.0	-0.4149797570850203	12.0	-48.0	0.5046643217617374	-1.0465495826052411	57.0	-0.42476655459542484	-172.0	
0.017524342118769215	2046.0	1248.0	10.085767545210256	-0.0752178394095469	2089.0	0.0	7602.05078125	52496.0	0.76	825.0	0.5890688259109311	-119.0	-0.4149797570850203	12.0	-60.0	1.0093286435234747	-0.7917224962971513	39.0	-0.2380844798348451	-205.0	
-0.0655544649369626	2041.0	1246.0	10.111220172970409	-0.015298611069479495	2096.0	0.0	7621.58203125	53136.0	0.76	825.0	0.5890688259109311	-119.0	-0.4149797570850203	12.0	-62.0	0.5352500382321457	-0.7423066855701594	37.0	-0.20690135441132537	-174.0	
-0.12506270196179858	2044.0	1246.0	10.112777422867762	-0.052007126755033856	2101.0	0.0	7641.11328125	53776.0	0.77	829.0	0.5890688259109311	-119.0	-0.4109311740890688	10.0	-52.0	0.8411072029362289	-0.5991983457786199	27.0	-0.35891510759465906	-194.0	
-0.10149935794893218	2046.0	1248.0	10.088159443202018	-0.0763602384503887	2099.0	0.0	7660.64453125	54416.0	0.77	829.0	0.5890688259109311	-119.0	-0.4109311740890688	10.0	-56.0	1.2998929499923537	-0.6796845019307225	31.0	-0.2983420345236804	-224.0	
-0.03008513790831134	2046.0	1248.0	10.086724304406962	-0.07567479902588364	2093.0	0.0	7680.17578125	55056.0	0.77	829.0	0.5890688259109311	-119.0	-0.4109311740890688	10.0	-36.0	0.2752714482336749	-0.7125387041324649	36.0	-0.605560249708196	-157.0	
-0.04174129456905465	2048.0	1246.0	10.111584828808821	-0.09939053564662251	2094.0	0.0	7699.70703125	55696.0	0.77	829.0	0.5890688259109311	-119.0	-0.4109311740890688	10.0	-28.0	-0.12234286588163329	-0.5416011777799684	26.0	-0.7266067437096703	-131.0	
-0.08960060095117676	2043.0	1248.0	10.087558952501372	-0.040108682381171046	2098.0	0.0	7719.23828125	56336.0	0.7575000000000001	824.0	0.5728744939271255	-127.0	-0.4311740890688259	20.0	-45.0	0.0764642911760208	-0.7059680784419591	36.0	-0.4673941905281668	-144.0	
-0.10113726394792133	2043.0	1245.0	10.124368843303104	-0.03948785119510384	2099.0	0.0	7738.76953125	56976.0	0.7575000000000001	824.0	0.5728744939271255	-127.0	-0.4311740890688259	20.0	-44.0	-0.09175714941122497	-0.8528935722803738	46.0	-0.4842079291246758	-133.0	
-0.029966848580650865	2043.0	1247.0	10.09855323717301	-0.03929245916403307	2093.0	0.0	7758.30078125	57616.0	0.7575000000000001	824.0	0.5728744939271255	-127.0	-0.4311740890688259	20.0	-32.0	-0.030585716470408322	-0.8073568985720414	43.0	-0.6678863662850915	-137.0	
-0.01805725255585129	2049.0	1247.0	10.099036649176776	-0.11145285159021581	2092.0	0.0	7777.83203125	58256.0	0.765	827.0	0.5809716599190283	-123.0	-0.40890688259109315	9.0	-48.0	-0.1529285823520416	-0.7895378343437118	42.0	-0.4221964371128096	-129.0	
-0.03008513790831134	2046.0	1248.0	10.086724304406962	-0.07567479902588364	2093.0	0.0	7797.36328125	58896.0	0.765	827.0	0.5809716599190283	-123.0	-0.40890688259109315	9.0	-37.0	0.22939287352806242	-0.7416185957612328	38.0	-0.5905065649663588	-154.0	
-0.06554964759160964	2045.0	1246.0	10.111701907505703	-0.06348169928965744	2096.0	0.0	7816.89453125	59536.0	0.765	827.0	0.5809716599190283	-123.0	-0.40890688259109315	9.0	-47.0	0.3211500229392874	-0.531492858290224	24.0	-0.4349604710103996	-160.0	
-0.08935197893247343	2047.0	1246.0	10.112421154371704	-0.08780172320791477	2098.0	0.0	7836.42578125	60176.0	0.77	829.0	0.5890688259109311	-119.0	-0.40890688259109315	9.0	-48.0	0.382321455880104	-0.6879000085772787	34.0	-0.42118005885514526	-164.0	
-0.06591415026529696	2046.0	1249.0	10.075251640136972	-0.07626254243485331	2096.0	0.0	7855.95703125	60816.0	0.77	829.0	0.5890688259109311	-119.0	-0.40890688259109315	9.0	-53.0	0.45878574705612485	-0.6763447110521913	33.0	-0.3443420875892698	-169.0	
-0.053770384257852896	2044.0	1247.0	10.099152050405186	-0.05156671102724594	2095.0	0.0	7875.48828125	61456.0	0.77	829.0	0.5890688259109311	-119.0	-0.40890688259109315	9.0	-41.0	0.382321455880104	-0.7483488453766779	38.0	-0.5291959328300136	-164.0	
-0.041989916587757956	2044.0	1248.0	10.08672262693849	-0.05169749481987884	2094.0	0.0	7895.01953125	62096.0	0.77	829.0	0.5890688259109311	-119.0	-0.40890688259109315	9.0	-48.0	0.48937146352653316	-0.7229430023533322	36.0	-0.4215304887929058	-171.0	
-0.06567275426462306	2044.0	1247.0	10.099391240204362	-0.0516809509313301	2096.0	0.0	7914.55078125	62736.0	0.7525000000000001	822.0	0.5789473684210527	-124.0	-0.4352226720647773	22.0	-33.0	-0.015292858235204161	-0.7773605596023538	41.0	-0.6522419192372696	-138.0	
-0.07745201759837977	2045.0	1246.0	10.11194109730488	-0.0635959391937416	2097.0	0.0	7934.08203125	63376.0	0.7525000000000001	822.0	0.5789473684210527	-124.0	-0.4352226720647773	22.0	-53.0	-0.09175714941122497	-0.7158480403997105	37.0	-0.34473712088274505	-133.0	
-0.10137865994859523	2045.0	1247.0	10.100229243235715	-0.0640694426986271	2099.0	0.0	7953.61328125	64016.0	0.7525000000000001	822.0	0.5789473684210527	-124.0	-0.4352226720647773	22.0	-39.0	0.6728857623489831	-0.6366177099975128	30.0	-0.5587675887924718	-183.0	
-0.0774496089257033	2047.0	1246.0	10.112181964572526	-0.08768748330383055	2097.0	0.0	7973.14453125	64656.0	0.76	825.0	0.5688259109311741	-129.0	-0.44534412955465585	27.0	-36.0	0.29056430646887904	-0.851576754619907	45.0	-0.6069506302130705	-158.0	
-0.05401057592218855	2047.0	1249.0	10.07513288397162	-0.08819407458581363	2095.0	0.0	7992.67578125	65296.0	0.76	825.0	0.5688259109311741	-129.0	-0.44534412955465585	27.0	-43.0	0.45878574705612485	-0.9055210783214562	48.0	-0.5000786878432115	-169.0	
-0.05352657958450252	2044.0	1245.0	10.123532517740223	-0.051076663633811664	2095.0	0.0	8012.20703125	400.0	0.76	825.0	0.5688259109311741	-129.0	-0.44534412955465585	27.0	-45.0	0.061171432940816645	-0.6592142928367506	33.0	-0.46692665267211464	-143.0	
-0.07757753294406967	2042.0	1247.0	10.09938956273589	-0.027703646725325298	2097.0	0.0	8031.73828125	1040.0	0.7725	830.0	0.5688259109311741	-129.0	-0.4311740890688259	20.0	-45.0	-0.1988071570576541	-0.9410496945075968	52.0	-0.4697450066888232	-126.0	
-0.053771588594191136	2043.0	1247.0	10.099031616771363	-0.03952093897220141	2095.0	0.0	8051.26953125	1680.0	0.7725	830.0	0.5688259109311741	-129.0	-0.4311740890688259	20.0	-37.0	0.12234286588163329	-0.7988598668674127	42.0	-0.5910789776774206	-147.0	
-0.05389108225818985	2045.0	1248.0	10.08708225037149	-0.06385750677900753	2095.0	0.0	8070.80078125	2320.0	0.7725	830.0	0.5688259109311741	-129.0	-0.4311740890688259	20.0	-39.0	0.1529285823520416	-0.8157707429965657	43.0	-0.5605591191224624	-149.0	
-0.041986303578743236	2047.0	1248.0	10.087083927839961	-0.08783481098501228	2094.0	0.0	8090.33203125	2960.0	0.7725	830.0	0.5688259109311741	-129.0	-0.4311740890688259	20.0	-26.0	-0.10705000764642914	-0.8802816098583192	48.0	-0.7606825153467035	-132.0	
-0.07769220926271546	2048.0	1248.0	10.087921930871314	-0.10022330275230928	2097.0	0.0	8109.86328125	3600.0	0.7625000000000001	826.0	0.5728744939271255	-127.0	-0.4190283400809717	14.0	-46.0	0.13763572411683744	-0.8316138071016026	44.0	-0.45330616415663827	-148.0	
-0.07769220926271546	2048.0	1248.0	10.087921930871314	-0.10022330275230928	2097.0	0.0	8129.39453125	4240.0	0.7625000000000001	826.0	0.5728744939271255	-127.0	-0.4190283400809717	14.0	-53.0	0.24468573176326658	-0.806207964078257	42.0	-0.3456407201195305	-155.0	
-0.05389349093086633	2043.0	1248.0	10.086841383103843	-0.03976596266891852	2095.0	0.0	8148.92578125	4880.0	0.7625000000000001	826.0	0.5728744939271255	-127.0	-0.4190283400809717	14.0	-52.0	0.5199571799969415	-0.663257183401221	32.0	-0.35955569597088505	-173.0	
-0.041869218587421	2043.0	1247.0	10.098792426972185	-0.03940669906811725	2094.0	0.0	8168.45703125	5520.0	0.76	825.0	0.5668016194331984	-130.0	-0.4433198380566802	26.0	-34.0	0.36702859764489987	-0.669759631688635	33.0	-0.6358214263000075	-163.0	
-0.029963235571636146	2046.0	1247.0	10.098914538074482	-0.07542977532916653	2093.0	0.0	8187.98828125	6160.0	0.76	825.0	0.5668016194331984	-130.0	-0.4433198380566802	26.0	-43.0	0.3058571647040832	-0.7609781493571884	39.0	-0.4986332585535689	-159.0	
-0.08959698794216205	2046.0	1248.0	10.087920253402842	-0.07624599854630454	2098.0	0.0	8207.51953125	6800.0	0.76	825.0	0.5668016194331984	-130.0	-0.4433198380566802	26.0	-44.0	0.33644288117449156	-0.7008320419241816	35.0	-0.4826873138211139	-161.0	
-0.07757391993505496	2045.0	1247.0	10.099750863637363	-0.06384096289045874	2097.0	0.0	8227.05078125	7440.0	0.76	825.0	0.5668016194331984	-130.0	-0.4433198380566802	26.0	-42.0	0.015292858235204161	-0.9030104178828691	49.0	-0.5153980648969506	-140.0	
-0.07769582227173015	2045.0	1248.0	10.087560629969843	-0.06408598658717585	2097.0	0.0	8246.58203125	8080.0	0.7675000000000001	828.0	0.5708502024291499	-128.0	-0.4736842105263158	41.0	-33.0	0.36702859764489987	-0.7003676238224144	35.0	-0.6514719898794702	-163.0	
-0.029837720225946274	2049.0	1246.0	10.11146607264347	-0.11132206779758283	2093.0	0.0	8266.11328125	8720.0	0.7675000000000001	828.0	0.5708502024291499	-128.0	-0.4736842105263158	41.0	-50.0	0.7187643370545955	-0.7631860804293835	38.0	-0.3912439522574165	-186.0	
-0.06555205626428612	2043.0	1246.0	10.111461040238057	-0.039390155179568453	2096.0	0.0	8285.64453125	9360.0	0.7675000000000001	828.0	0.5708502024291499	-128.0	-0.4736842105263158	41.0	-49.0	0.24468573176326658	-0.8363556677311406	44.0	-0.40732013178855897	-155.0	
-0.08935679627782639	2043.0	1246.0	10.111939419836409	-0.039618634987736795	2098.0	0.0	8305.17578125	10000.0	0.7575000000000001	824.0	0.5748987854251012	-126.0	-0.4534412955465587	31.0	-41.0	-0.24468573176326658	-0.7847939089037381	42.0	-0.5295603834652842	-123.0	
-0.06579465660129825	2044.0	1248.0	10.087201006536842	-0.05192597462804721	2096.0	0.0	8324.70703125	10640.0	0.7575000000000001	824.0	0.5748987854251012	-126.0	-0.4534412955465587	31.0	-50.0	0.1988071570576541	-0.7116284512228526	36.0	-0.39072837596535115	-152.0	
-0.04186199256939159	2049.0	1247.0	10.099515028775128	-0.11168133139838413	2094.0	0.0	8344.23828125	11280.0	0.7575000000000001	824.0	0.5748987854251012	-126.0	-0.4534412955465587	31.0	-38.0	0.16822144058724578	-0.7239447017847921	37.0	-0.5749853423684694	-150.0	
