Device	Device	Device	Device	Device	Device	Device	Device	Device	Device	Device	Device	Device	Device	Device	Device	Device	Device	Device	Device	Device	
Low Noise Accelerometer X	Low Noise Accelerometer X	Low Noise Accelerometer Z	Low Noise Accelerometer Z	Low Noise Accelerometer Y	Low Noise Accelerometer Y	Event_Marker	Timestamp	Timestamp	Magnetometer Z	Magnetometer Z	Magnetometer X	Magnetometer X	Magnetometer Y	Magnetometer Y	Gyroscope Y	Gyroscope Y	Gyroscope Z	Gyroscope Z	Gyroscope X	Gyroscope X	
CAL	UNCAL	CAL	UNCAL	UNCAL	CAL	CAL	UNCAL	CAL	UNCAL	CAL	CAL	UNCAL	UNCAL	CAL	CAL	UNCAL	CAL	UNCAL	CAL	UNCAL	
m/(s^2)	no units	m/(s^2)	no units	no units	m/(s^2)	no units	no units	ms	no units	local_flux	local_flux	no units	no units	local_flux	deg/s	no units	deg/s	no units	deg/s	no units	
0.08902553874225641	2017.0	10.093030064701832	1247.0	2083.0	0.27504001330796524	0.0	28417.0	867.218017578125	854.0	0.8325	-0.4331983805668016	-624.0	-307.0	0.23076923076923078	0.12234286588163329	-44.0	-0.8460760057639527	45.0	-0.4841397534595116	-147.0	
0.10104981108570173	2017.0	10.104981108570174	1246.0	2082.0	0.27539927690876653	0.0	29057.0	886.749267578125	854.0	0.8325	-0.4331983805668016	-624.0	-307.0	0.23076923076923078	0.1988071570576541	-45.0	-0.8031455686369267	42.0	-0.4683659654301164	-152.0	
0.10117050908603868	2016.0	10.117050908603868	1245.0	2082.0	0.28769007266052815	0.0	29697.0	906.280517578125	844.0	0.8075	-0.4473684210526316	-631.0	-291.0	0.19838056680161945	0.25997858999847073	-50.0	-0.8371207503888642	44.0	-0.3919832989570113	-156.0	
0.1010522197583782	2019.0	10.10522197583782	1246.0	2082.0	0.2513077327986776	0.0	30337.0	925.811767578125	844.0	0.8075	-0.4473684210526316	-631.0	-291.0	0.19838056680161945	0.33644288117449156	-52.0	-0.8251051643828813	43.0	-0.36117417578070166	-161.0	
0.08902674307859465	2018.0	10.093150498335655	1247.0	2083.0	0.2629942412529207	0.0	30977.0	945.343017578125	844.0	0.8075	-0.4473684210526316	-631.0	-291.0	0.19838056680161945	0.33644288117449156	-50.0	-0.8863211486504398	47.0	-0.39247530293962707	-161.0	
0.07736817774517488	2018.0	10.117770155469868	1245.0	2084.0	0.2633700487422708	0.0	31617.0	964.874267578125	849.0	0.8200000000000001	-0.4392712550607287	-627.0	-308.0	0.23279352226720648	0.22939287352806242	-56.0	-0.8829601534635888	47.0	-0.3003747910390091	-154.0	
0.10105101542203997	2018.0	10.105101542203997	1246.0	2082.0	0.26335350485372205	0.0	32257.0	984.405517578125	849.0	0.8200000000000001	-0.4392712550607287	-627.0	-308.0	0.23279352226720648	0.22939287352806242	-49.0	-1.0049318335178103	55.0	-0.40900589344642563	-154.0	
0.1009267044126883	2016.0	10.092670441268831	1247.0	2082.0	0.2872000252670939	0.0	32897.0	1003.936767578125	849.0	0.8200000000000001	-0.4392712550607287	-627.0	-308.0	0.23279352226720648	0.16822144058724578	-40.0	-0.8319165364679948	44.0	-0.5453760933990517	-150.0	
0.10092550007635008	2015.0	10.092550007635008	1247.0	2082.0	0.29924579732213835	0.0	33537.0	1023.468017578125	849.0	0.8200000000000001	-0.4392712550607287	-627.0	-308.0	0.23279352226720648	0.13763572411683744	-47.0	-0.8010058149678234	42.0	-0.43765560057717556	-148.0	
0.11283148309213492	2018.0	10.092672118737303	1247.0	2081.0	0.26322272106108907	0.0	34177.0	1042.999267578125	857.0	0.84	-0.4473684210526316	-631.0	-294.0	0.20445344129554657	0.10705000764642914	-43.0	-0.6915038149691733	35.0	-0.4979385152096887	-146.0	
0.10104860674936349	2016.0	10.104860674936349	1246.0	2082.0	0.287445048963811	0.0	34817.0	1062.530517578125	857.0	0.84	-0.4473684210526316	-631.0	-294.0	0.20445344129554657	0.24468573176326658	-54.0	-0.8525035260130056	45.0	-0.3307591920807531	-155.0	
0.06534390540172955	2018.0	10.105819111601525	1246.0	2085.0	0.26301078514146947	0.0	35457.0	1082.061767578125	857.0	0.84	-0.4473684210526316	-631.0	-294.0	0.20445344129554657	0.12234286588163329	-51.0	-0.8010078797782592	42.0	-0.3762776865927803	-147.0	
0.08902674307859465	2018.0	10.093150498335655	1247.0	2083.0	0.2629942412529207	0.0	36097.0	1101.593017578125	851.0	0.8250000000000001	-0.44129554655870445	-628.0	-304.0	0.22469635627530365	0.29056430646887904	-51.0	-0.9769238835340299	53.0	-0.3780368466303381	-158.0	
0.10104981108570173	2017.0	10.104981108570174	1246.0	2082.0	0.27539927690876653	0.0	36737.0	1121.124267578125	851.0	0.8250000000000001	-0.44129554655870445	-628.0	-304.0	0.22469635627530365	0.13763572411683744	-36.0	-0.8300795121652838	44.0	-0.6067356577885242	-148.0	
0.10092911308536479	2018.0	10.092911308536479	1247.0	2082.0	0.2631084811570049	0.0	37377.0	1140.655517578125	851.0	0.8250000000000001	-0.44129554655870445	-628.0	-304.0	0.22469635627530365	0.1988071570576541	-38.0	-0.7559294297403867	39.0	-0.5753051896480255	-152.0	
0.10104981108570173	2017.0	10.104981108570174	1246.0	2082.0	0.27539927690876653	0.0	38017.0	1160.186767578125	851.0	0.8250000000000001	-0.44129554655870445	-628.0	-304.0	0.22469635627530365	0.24468573176326658	-60.0	-0.8380433921610914	44.0	-0.2385476887934845	-155.0	
0.10105101542203997	2018.0	10.105101542203997	1246.0	2082.0	0.26335350485372205	0.0	38657.0	1179.718017578125	851.0	0.8250000000000001	-0.44129554655870445	-628.0	-297.0	0.21052631578947367	0.24468573176326658	-58.0	-0.7300715574778885	37.0	-0.26815693776290234	-155.0	
0.1010522197583782	2019.0	10.10522197583782	1246.0	2082.0	0.2513077327986776	0.0	39297.0	1199.249267578125	851.0	0.8250000000000001	-0.44129554655870445	-628.0	-297.0	0.21052631578947367	0.2752714482336749	-53.0	-0.8228119812201461	43.0	-0.34580676029094937	-157.0	
0.08914864541526982	2018.0	10.105340732003173	1246.0	2083.0	0.26323926494963784	0.0	39937.0	1218.780517578125	851.0	0.8250000000000001	-0.44129554655870445	-628.0	-297.0	0.21052631578947367	0.22939287352806242	-55.0	-0.8828067239699569	47.0	-0.3157177404021977	-154.0	
0.07712557740816274	2019.0	10.093510121768656	1247.0	2084.0	0.25083422929379207	0.0	40577.0	1238.311767578125	854.0	0.8325	-0.4493927125506073	-632.0	-293.0	0.20242914979757085	0.12234286588163329	-48.0	-0.6928826156014245	35.0	-0.4212298849253867	-147.0	
0.10105101542203997	2018.0	10.105101542203997	1246.0	2082.0	0.26335350485372205	0.0	41217.0	1257.843017578125	854.0	0.8325	-0.4493927125506073	-632.0	-293.0	0.20242914979757085	0.25997858999847073	-44.0	-0.9131037274956009	49.0	-0.4848100306768281	-156.0	
0.11295218109247188	2017.0	10.104741918770996	1246.0	2081.0	0.2755135168128507	0.0	41857.0	1277.374267578125	854.0	0.8325	-0.4493927125506073	-632.0	-293.0	0.20242914979757085	0.09175714941122497	-56.0	-0.877455274986763	47.0	-0.30031974225424085	-145.0	
0.10092911308536479	2018.0	10.092911308536479	1247.0	2082.0	0.2631084811570049	0.0	42497.0	1296.905517578125	851.0	0.8250000000000001	-0.44129554655870445	-628.0	-295.0	0.20647773279352227	0.18351429882244993	-53.0	-0.7576192189807732	39.0	-0.3451548326685557	-151.0	
0.08902553874225641	2017.0	10.093030064701832	1247.0	2083.0	0.27504001330796524	0.0	43137.0	1316.436767578125	851.0	0.8250000000000001	-0.44129554655870445	-628.0	-295.0	0.20647773279352227	0.3211500229392874	-57.0	-0.7944992370595377	41.0	-0.2841456982168437	-160.0	
0.10105101542203997	2018.0	10.105101542203997	1246.0	2082.0	0.26335350485372205	0.0	43777.0	1335.968017578125	851.0	0.8250000000000001	-0.44129554655870445	-628.0	-295.0	0.20647773279352227	0.24468573176326658	-54.0	-0.8063613935718889	42.0	-0.3302977707563419	-155.0	
0.10080600641235135	2017.0	10.080600641235137	1248.0	2082.0	0.27490922951533225	0.0	44417.0	1355.499267578125	851.0	0.8250000000000001	-0.44129554655870445	-628.0	-295.0	0.20647773279352227	0.12234286588163329	-54.0	-0.7860874574454492	41.0	-0.33009503139507756	-147.0	
0.11283148309213492	2018.0	10.092672118737303	1247.0	2081.0	0.26322272106108907	0.0	45057.0	1375.030517578125	848.0	0.8175	-0.44534412955465585	-630.0	-296.0	0.20850202429149797	0.18351429882244993	-42.0	-0.6944086512960002	35.0	-0.5133120472310819	-151.0	
0.10092911308536479	2018.0	10.092911308536479	1247.0	2082.0	0.2631084811570049	0.0	45697.0	1394.561767578125	848.0	0.8175	-0.44534412955465585	-630.0	-296.0	0.20850202429149797	0.21410001529285827	-51.0	-0.8508199312039265	45.0	-0.376775807107037	-153.0	
0.08914984975160806	2019.0	10.105461165636997	1246.0	2083.0	0.25119349289459336	0.0	46337.0	1414.093017578125	848.0	0.8175	-0.44534412955465585	-630.0	-296.0	0.20850202429149797	0.3211500229392874	-47.0	-0.8237263637506301	43.0	-0.4378828060650036	-160.0	
0.10092911308536479	2018.0	10.092911308536479	1247.0	2082.0	0.2631084811570049	0.0	46977.0	1433.624267578125	854.0	0.8325	-0.4473684210526316	-631.0	-287.0	0.1902834008097166	0.29056430646887904	-57.0	-0.8855601956135877	47.0	-0.2850563078023842	-158.0	
0.10104981108570173	2017.0	10.104981108570174	1246.0	2082.0	0.27539927690876653	0.0	47617.0	1453.155517578125	854.0	0.8325	-0.4473684210526316	-631.0	-287.0	0.1902834008097166	0.3058571647040832	-46.0	-0.838341991906612	44.0	-0.4533734460046884	-159.0	
0.10104981108570173	2017.0	10.104981108570174	1246.0	2082.0	0.27539927690876653	0.0	48257.0	1472.686767578125	854.0	0.8325	-0.4473684210526316	-631.0	-287.0	0.1902834008097166	0.24468573176326658	-44.0	-0.8663499418903924	46.0	-0.484342492820776	-155.0	
0.10105101542203997	2018.0	10.105101542203997	1246.0	2082.0	0.26335350485372205	0.0	48897.0	1492.218017578125	854.0	0.8325	-0.4473684210526316	-631.0	-287.0	0.1902834008097166	0.22939287352806242	-54.0	-0.8211304512215027	43.0	-0.33044546133283803	-154.0	
0.10104981108570173	2017.0	10.104981108570174	1246.0	2082.0	0.27539927690876653	0.0	49537.0	1511.749267578125	853.0	0.8300000000000001	-0.4311740890688259	-623.0	-296.0	0.20850202429149797	0.12234286588163329	-42.0	-0.7227234602670443	37.0	-0.5135951953207923	-147.0	
0.10092790874902655	2017.0	10.092790874902656	1247.0	2082.0	0.2751542532120494	0.0	50177.0	1531.280517578125	853.0	0.8300000000000001	-0.4311740890688259	-623.0	-296.0	0.20850202429149797	0.1988071570576541	-45.0	-0.8185262794506323	43.0	-0.46851977253825344	-152.0	
0.10092790874902655	2017.0	10.092790874902656	1247.0	2082.0	0.2751542532120494	0.0	50817.0	1550.811767578125	853.0	0.8300000000000001	-0.4311740890688259	-623.0	-296.0	0.20850202429149797	0.21410001529285827	-52.0	-0.8202119390701472	43.0	-0.3611252435275743	-153.0	
0.08902553874225641	2017.0	10.093030064701832	1247.0	2083.0	0.27504001330796524	0.0	51457.0	1570.343017578125	844.0	0.8075	-0.4311740890688259	-623.0	-287.0	0.1902834008097166	0.25997858999847073	-48.0	-0.9444788670975396	51.0	-0.4237458474403479	-156.0	
0.10092790874902655	2017.0	10.092790874902656	1247.0	2082.0	0.2751542532120494	0.0	52097.0	1589.874267578125	844.0	0.8075	-0.4311740890688259	-623.0	-287.0	0.1902834008097166	0.18351429882244993	-46.0	-0.9564944531035227	52.0	-0.4545549706166575	-151.0	
0.08902313006957993	2015.0	10.092789197434184	1247.0	2083.0	0.2991315574180542	0.0	52737.0	1609.405517578125	844.0	0.8075	-0.4311740890688259	-623.0	-287.0	0.1902834008097166	0.16822144058724578	-44.0	-0.7248652787465834	37.0	-0.4829276461893379	-150.0	
0.11270958075545973	2018.0	10.080481885069783	1248.0	2081.0	0.26297769736437193	0.0	53377.0	1628.936767578125	853.0	0.8300000000000001	-0.4331983805668016	-624.0	-285.0	0.1862348178137652	0.24468573176326658	-52.0	-0.8060545345846251	42.0	-0.3609836694827191	-155.0	
0.10105101542203997	2018.0	10.105101542203997	1246.0	2082.0	0.26335350485372205	0.0	54017.0	1648.468017578125	853.0	0.8300000000000001	-0.4331983805668016	-624.0	-285.0	0.1862348178137652	0.13763572411683744	-45.0	-1.0314096181861432	57.0	-0.4706486059256086	-148.0	
0.10104981108570173	2017.0	10.104981108570174	1246.0	2082.0	0.27539927690876653	0.0	54657.0	1667.999267578125	853.0	0.8300000000000001	-0.4331983805668016	-624.0	-285.0	0.1862348178137652	0.13763572411683744	-36.0	-0.8762216446064005	47.0	-0.6071970791129354	-148.0	
0.08914623674259335	2016.0	10.105099864735525	1246.0	2083.0	0.28733080905972685	0.0	55297.0	1687.530517578125	853.0	0.8300000000000001	-0.4331983805668016	-624.0	-285.0	0.1862348178137652	0.3211500229392874	-45.0	-0.8234195047633663	43.0	-0.4685687047913808	-160.0	
0.11295218109247188	2017.0	10.104741918770996	1246.0	2081.0	0.2755135168128507	0.0	55937.0	1707.061767578125	853.0	0.8300000000000001	-0.4331983805668016	-624.0	-288.0	0.19230769230769232	0.3211500229392874	-40.0	-0.8995559113637348	48.0	-0.546052487148009	-160.0	
0.10092790874902655	2017.0	10.092790874902656	1247.0	2082.0	0.2751542532120494	0.0	56577.0	1726.593017578125	853.0	0.8300000000000001	-0.4331983805668016	-624.0	-288.0	0.19230769230769232	0.21410001529285827	-32.0	-1.0017118789619766	55.0	-0.6698299160889907	-153.0	
0.08927054775194501	2018.0	10.117530965670692	1245.0	2083.0	0.263484288646355	0.0	57217.0	1746.124267578125	853.0	0.8300000000000001	-0.4331983805668016	-624.0	-288.0	0.19230769230769232	0.21410001529285827	-48.0	-0.7734560886545029	40.0	-0.4220356196559175	-153.0	
0.08902674307859465	2018.0	10.093150498335655	1247.0	2083.0	0.2629942412529207	0.0	57857.0	1765.655517578125	844.0	0.8075	-0.4433198380566802	-629.0	-286.0	0.1882591093117409	0.29056430646887904	-50.0	-0.6999176593936975	35.0	-0.39061126804705965	-158.0	
0.08914864541526982	2018.0	10.105340732003173	1246.0	2083.0	0.26323926494963784	0.0	58497.0	1785.186767578125	844.0	0.8075	-0.4433198380566802	-629.0	-286.0	0.1882591093117409	0.18351429882244993	-55.0	-0.8194489212228594	43.0	-0.3150841623747267	-151.0	
0.08890484074191946	2018.0	10.080960264668136	1248.0	2083.0	0.2627492175562036	0.0	59137.0	1804.718017578125	844.0	0.8075	-0.4433198380566802	-629.0	-286.0	0.1882591093117409	0.18351429882244993	-52.0	-0.8651307651830805	46.0	-0.36157443178870363	-151.0	
0.07724507107216144	2017.0	10.105459488168526	1246.0	2084.0	0.27517079710059816	0.0	59777.0	1824.249267578125	850.0	0.8225	-0.4271255060728745	-621.0	-293.0	0.20242914979757085	0.09175714941122497	-46.0	-0.660591028658566	33.0	-0.4515959363722079	-145.0	
0.1129497724197954	2015.0	10.10450105150335	1246.0	2081.0	0.29960506092293965	0.0	60417.0	1843.780517578125	850.0	0.8225	-0.4271255060728745	-621.0	-293.0	0.20242914979757085	0.1529285823520416	-42.0	-0.8008503206637557	42.0	-0.5143764639247596	-149.0	
0.1011741220950534	2019.0	10.11741220950534	1245.0	2082.0	0.2515527564953947	0.0	61057.0	1863.311767578125	850.0	0.8225	-0.4271255060728745	-621.0	-293.0	0.20242914979757085	0.382321455880104	-59.0	-0.8433948411442853	44.0	-0.2539456869414413	-164.0	
0.08914744107893159	2017.0	10.10522029836935	1246.0	2083.0	0.2752850370046823	0.0	61697.0	1882.843017578125	850.0	0.8225	-0.4271255060728745	-621.0	-293.0	0.20242914979757085	0.22939287352806242	-48.0	-0.9893976932104729	54.0	-0.42419503570147715	-154.0	
0.07724627540849968	2018.0	10.105579921802349	1246.0	2084.0	0.2631250250455537	0.0	62337.0	1902.374267578125	852.0	0.8275	-0.4311740890688259	-623.0	-296.0	0.20850202429149797	0.1529285823520416	-35.0	-0.8459184466494493	45.0	-0.6222385307914908	-149.0	
0.10104860674936349	2016.0	10.104860674936349	1246.0	2082.0	0.287445048963811	0.0	62977.0	1921.905517578125	852.0	0.8275	-0.4311740890688259	-623.0	-296.0	0.20850202429149797	0.18351429882244993	-48.0	-0.710709939071497	36.0	-0.4214081581600874	-151.0	
0.17331975615572537	2019.0	10.189118472715396	1239.0	2076.0	0.2537083381002025	0.0	63617.0	1941.436767578125	852.0	0.8275	-0.4311740890688259	-623.0	-296.0	0.20850202429149797	-1.3457715246979662	-47.0	-0.8339597229331565	48.0	-0.43798513965682895	-51.0	
0.06509769205570269	2016.0	10.081197776998842	1248.0	2085.0	0.2866122818581242	0.0	64257.0	1960.968017578125	847.0	0.8150000000000001	-0.4251012145748988	-620.0	-298.0	0.2125506072874494	0.9175714941122497	-53.0	-0.848501414112	43.0	-0.34606365461986793	-199.0	
0.07724507107216144	2017.0	10.105459488168526	1246.0	2084.0	0.27517079710059816	0.0	64897.0	1980.499267578125	847.0	0.8150000000000001	-0.4251012145748988	-620.0	-298.0	0.2125506072874494	-1.1010857929346995	-36.0	-0.795916316687557	45.0	-0.606394025833747	-67.0	
0.08914744107893159	2017.0	10.10522029836935	1246.0	2083.0	0.2752850370046823	0.0	1.0	2000.030517578125	847.0	0.8150000000000001	-0.4251012145748988	-620.0	-298.0	0.2125506072874494	-3.1044502217464447	-53.0	-0.7183980535832789	45.0	-0.3447626210145807	64.0	
0.18388360913174492	2021.0	10.055027579841159	1250.0	2075.0	0.22703577323030932	0.0	641.0	2019.561767578125	847.0	0.8150000000000001	-0.4251012145748988	-620.0	-298.0	0.2125506072874494	-2.5997858999847074	-57.0	-0.8160998800413624	50.0	-0.28436170464666194	31.0	
-0.065702862673079	2019.0	10.09638039935877	1247.0	2096.0	0.24946335044478193	0.0	1281.0	2039.093017578125	850.0	0.8225	-0.4251012145748988	-620.0	-297.0	0.21052631578947367	0.36702859764489987	-81.0	-16.734432907397963	1077.0	-0.0752774271252302	-163.0	
0.6366432136906375	2006.0	10.092892797635182	1246.0	2037.0	0.41304356519804375	0.0	1921.0	2058.624267578125	850.0	0.8225	-0.4251012145748988	-620.0	-297.0	0.21052631578947367	0.0764642911760208	-45.0	-3.6283031330460203	226.0	-0.4966175410742074	-144.0	
0.0771243730718245	2018.0	10.093389688134831	1247.0	2084.0	0.26288000134883655	0.0	2561.0	2078.155517578125	850.0	0.8225	-0.4251012145748988	-620.0	-297.0	0.21052631578947367	0.6728857623489831	-46.0	-0.714595270521464	35.0	-0.4521359787908369	-183.0	
0.08914744107893159	2017.0	10.10522029836935	1246.0	2083.0	0.2752850370046823	0.0	3201.0	2097.686767578125	852.0	0.8275	-0.4473684210526316	-631.0	-290.0	0.19635627530364372	0.8716929194066372	-44.0	-0.722239902667393	35.0	-0.482901392428546	-196.0	
0.07736938208151312	2019.0	10.117890589103693	1245.0	2084.0	0.25132427668722634	0.0	3841.0	2117.218017578125	852.0	0.8275	-0.4473684210526316	-631.0	-290.0	0.19635627530364372	0.6728857623489831	-45.0	-0.8682489491648879	45.0	-0.469016999235396	-183.0	
0.08914623674259335	2016.0	10.105099864735525	1246.0	2083.0	0.28733080905972685	0.0	4481.0	2136.749267578125	852.0	0.8275	-0.4473684210526316	-631.0	-290.0	0.19635627530364372	-0.5505428964673498	-47.0	-0.6965778685151665	37.0	-0.43661132111264905	-103.0	
0.10104981108570173	2017.0	10.104981108570174	1246.0	2082.0	0.27539927690876653	0.0	5121.0	2156.280517578125	846.0	0.8125	-0.4251012145748988	-620.0	-300.0	0.2165991902834008	-1.2998929499923537	-27.0	-0.7558225384842661	43.0	-0.7440934409748382	-54.0	
-0.37529842854916023	2009.0	10.089204764131596	1248.0	2122.0	0.36670580979232104	0.0	5761.0	2175.811767578125	846.0	0.8125	-0.4251012145748988	-620.0	-300.0	0.2165991902834008	-0.13763572411683744	-38.0	-0.41947813304255077	18.0	-0.5719406766810471	-130.0	
0.18449312081512087	2021.0	10.115978748178753	1245.0	2075.0	0.22826089171389496	0.0	6401.0	2195.343017578125	846.0	0.8125	-0.4251012145748988	-620.0	-300.0	0.2165991902834008	1.0705000764642914	-41.0	6.51458368793564	-436.0	-0.45656660749689043	-209.0	
-0.0893832916772676	2021.0	10.109289879892287	1246.0	2098.0	0.22538835022324177	0.0	7041.0	2214.874267578125	846.0	0.8125	-0.4251012145748988	-620.0	-300.0	0.2165991902834008	0.4434928888209207	-37.0	6.109615282854174	-408.0	-0.5219942261802047	-168.0	
-0.2677909177604534	2026.0	10.12567012871657	1245.0	2113.0	0.16369091508347386	0.0	7681.0	2234.405517578125	848.0	0.8175	-0.4311740890688259	-623.0	-305.0	0.22672064777327935	0.5505428964673498	-56.0	-3.0798658054557086	189.0	-0.3223438475589303	-175.0	
-0.0535518706476055	2023.0	10.121003411429927	1245.0	2095.0	0.20188454952212248	0.0	8321.0	2253.936767578125	848.0	0.8175	-0.4311740890688259	-623.0	-305.0	0.22672064777327935	0.030585716470408322	-66.0	-10.104969445490065	647.0	-0.2391500473780248	-141.0	
0.005587046358190212	2017.0	10.082514159628547	1248.0	2090.0	0.2739953102826589	0.0	8961.0	2273.468017578125	848.0	0.8175	-0.4311740890688259	-623.0	-305.0	0.22672064777327935	-0.12234286588163329	-49.0	-7.46614306331375	476.0	-0.47361800574438506	-131.0	
0.18473331247945654	2018.0	10.13999791461232	1243.0	2075.0	0.2648882552724627	0.0	9601.0	2292.999267578125	857.0	0.84	-0.43724696356275305	-626.0	-306.0	0.22874493927125505	0.3976143141153082	-57.0	-4.4120245441008095	276.0	-0.3203209512872564	-165.0	
0.11258406540976984	2015.0	10.067930350500795	1249.0	2081.0	0.29886998983278823	0.0	10241.0	2312.530517578125	857.0	0.84	-0.43724696356275305	-626.0	-306.0	0.22874493927125505	0.2752714482336749	-59.0	-2.5309914585032574	154.0	-0.27082165311503104	-157.0	
-0.1014039510116982	2024.0	10.097700136925416	1247.0	2099.0	0.188891770457307	0.0	10881.0	2332.061767578125	857.0	0.84	-0.43724696356275305	-626.0	-306.0	0.22874493927125505	0.18351429882244993	-58.0	-6.879909270303755	437.0	-0.32965531489116096	-151.0	
-0.017854395318000968	2015.0	10.119322372961808	1245.0	2092.0	0.29859344567473084	0.0	11521.0	2351.593017578125	857.0	0.84	-0.43724696356275305	-626.0	-306.0	0.22874493927125505	-0.1988071570576541	-58.0	-10.602130668931919	680.0	-0.3668775288774426	-126.0	
0.19626515813084816	2014.0	10.102706289275291	1246.0	2074.0	0.3124505123065734	0.0	12161.0	2371.124267578125	854.0	0.8325	-0.43724696356275305	-626.0	-305.0	0.22672064777327935	0.015292858235204161	-60.0	-11.303132658833219	725.0	-0.34319858146020576	-140.0	
0.01737714871899107	2025.0	10.071048205232442	1249.0	2089.0	0.17749835004967005	0.0	12801.0	2390.655517578125	854.0	0.8325	-0.43724696356275305	-626.0	-305.0	0.22672064777327935	0.382321455880104	-63.0	-5.319795405907138	335.0	-0.23733175795657024	-164.0	
0.2438734338215905	2013.0	10.101629096444764	1246.0	2070.0	0.32495324397795455	0.0	13441.0	2410.186767578125	854.0	0.8325	-0.43724696356275305	-626.0	-305.0	0.22672064777327935	-0.29056430646887904	-43.0	-4.905296306471823	310.0	-0.5400764401247152	-120.0	
0.339079146176031	2002.0	10.098390808079293	1246.0	2062.0	0.45837065581611725	0.0	14081.0	2429.718017578125	853.0	0.8300000000000001	-0.4311740890688259	-623.0	-301.0	0.21862348178137653	-0.18351429882244993	-49.0	-2.7571989416634755	170.0	-0.4265285645278823	-127.0	
0.1363912140959866	2017.0	10.067692838170089	1249.0	2079.0	0.27500692553086764	0.0	14721.0	2449.249267578125	853.0	0.8300000000000001	-0.4311740890688259	-623.0	-301.0	0.21862348178137653	0.3976143141153082	-44.0	-1.0416542924820713	57.0	-0.4860955363266928	-165.0	
0.17234092445330917	2016.0	10.091235302473773	1247.0	2076.0	0.2878854646915989	0.0	15361.0	2468.780517578125	853.0	0.8300000000000001	-0.4311740890688259	-623.0	-301.0	0.21862348178137653	-0.16822144058724578	-61.0	-3.820920794896835	239.0	-0.253031979162717	-128.0	
0.2439989491672804	2016.0	10.114180631013754	1245.0	2070.0	0.28906095150953826	0.0	16001.0	2488.311767578125	860.0	0.8475	-0.4574898785425101	-636.0	-294.0	0.20445344129554657	-0.3058571647040832	-64.0	-4.923287383487707	311.0	-0.21802219407425102	-119.0	
0.029637999717757352	2019.0	10.106657114632878	1246.0	2088.0	0.2506222933741725	0.0	16641.0	2507.843017578125	860.0	0.8475	-0.4574898785425101	-636.0	-294.0	0.20445344129554657	-0.015292858235204161	-50.0	-5.378801394292066	340.0	-0.43740010539604335	-138.0	
-0.08938570034994409	2019.0	10.10904901262464	1246.0	2098.0	0.24947989433333073	0.0	17281.0	2527.374267578125	860.0	0.8475	-0.4574898785425101	-636.0	-294.0	0.20445344129554657	0.030585716470408322	-46.0	-4.810936335702706	303.0	-0.49309938944264936	-141.0	
0.08914623674259335	2016.0	10.105099864735525	1246.0	2083.0	0.28733080905972685	0.0	17921.0	2546.905517578125	860.0	0.8475	-0.4574898785425101	-636.0	-294.0	0.20445344129554657	-0.25997858999847073	-38.0	-2.4909808675800704	153.0	-0.5926557040264223	-122.0	
0.18400551146842012	2021.0	10.067217813508679	1249.0	2075.0	0.22728079692702643	0.0	18561.0	2566.436767578125	861.0	0.85	-0.43724696356275305	-626.0	-296.0	0.20850202429149797	0.04587857470561248	-48.0	-0.8436314579180215	45.0	-0.42273737334855266	-142.0	
0.3274338285423319	2013.0	10.124335235185569	1244.0	2063.0	0.32624297069997804	0.0	19201.0	2585.968017578125	861.0	0.85	-0.43724696356275305	-626.0	-296.0	0.20850202429149797	-0.061171432940816645	-42.0	-1.9304597765806844	116.0	-0.5256725584839288	-135.0	
0.10080600641235135	2017.0	10.080600641235137	1248.0	2082.0	0.27490922951533225	0.0	19841.0	2605.499267578125	861.0	0.85	-0.43724696356275305	-626.0	-296.0	0.20850202429149797	-0.565835754702554	-43.0	-0.5261646784257857	26.0	-0.4962851238442548	-102.0	
0.10092911308536479	2018.0	10.092911308536479	1247.0	2082.0	0.2631084811570049	0.0	20481.0	2625.030517578125	857.0	0.84	-0.4493927125506073	-632.0	-275.0	0.1659919028340081	-0.5199571799969415	-53.0	-1.4216151600493037	84.0	-0.35179479207924097	-105.0	
0.18436640113309272	2017.0	10.10330677997594	1246.0	2075.0	0.27619895623735574	0.0	21121.0	2644.561767578125	857.0	0.84	-0.4493927125506073	-632.0	-275.0	0.1659919028340081	-0.09175714941122497	-42.0	0.14715948959775305	-19.0	-0.5048963658221444	-133.0	
0.1367545124333357	2015.0	10.104022671904996	1246.0	2079.0	0.299833540731108	0.0	21761.0	2664.093017578125	857.0	0.84	-0.4493927125506073	-632.0	-275.0	0.1659919028340081	-0.10705000764642914	-37.0	-1.7432891398557826	104.0	-0.6005232704073042	-132.0	
0.07724507107216144	2017.0	10.105459488168526	1246.0	2084.0	0.27517079710059816	0.0	22401.0	2683.624267578125	857.0	0.84	-0.4493927125506073	-632.0	-275.0	0.1659919028340081	-0.16822144058724578	-49.0	-1.2812623567118309	74.0	-0.41176919867836587	-128.0	
0.20804321712826662	2012.0	10.090035998540952	1247.0	2073.0	0.33641127262402937	0.0	23041.0	2703.155517578125	863.0	0.855	-0.43724696356275305	-626.0	-301.0	0.21862348178137653	0.42820003058571654	-58.0	0.8621825291783911	-67.0	-0.25223439689633953	-167.0	
-0.0061946256482429685	2016.0	10.094823149461417	1247.0	2091.0	0.2861718661303363	0.0	23681.0	2722.686767578125	863.0	0.855	-0.43724696356275305	-626.0	-301.0	0.21862348178137653	-0.48937146352653316	-31.0	5.409572583767694	-360.0	-0.6210615551198189	-107.0	
0.05332204173096069	2020.0	10.09410893500083	1247.0	2086.0	0.23855997743057922	0.0	24321.0	2742.218017578125	863.0	0.855	-0.43724696356275305	-626.0	-301.0	0.21862348178137653	0.36702859764489987	-44.0	5.896269590827331	-394.0	-0.41671629749359873	-163.0	
0.07725109275385263	2022.0	10.106061656337644	1246.0	2084.0	0.21494193682537577	0.0	24961.0	2761.749267578125	865.0	0.86	-0.44129554655870445	-628.0	-299.0	0.2145748987854251	-0.22939287352806242	-52.0	1.0893534327743006	-80.0	-0.34202958980912984	-124.0	
0.1248605727809332	2022.0	10.105104897140938	1246.0	2080.0	0.21539889644171245	0.0	25601.0	2781.280517578125	865.0	0.86	-0.44129554655870445	-628.0	-299.0	0.2145748987854251	0.04587857470561248	-58.0	-3.6290744101350514	226.0	-0.2971469662894739	-142.0	
0.1486616997854588	2019.0	10.104265216641116	1246.0	2078.0	0.25176469241501426	0.0	26241.0	2800.811767578125	865.0	0.86	-0.44129554655870445	-628.0	-299.0	0.2145748987854251	0.3517357394096957	-53.0	-1.8871392931862903	112.0	-0.3564500334106108	-162.0	
0.029635591045080872	2017.0	10.10641624736523	1246.0	2088.0	0.2747138374842615	0.0	26881.0	2820.343017578125	860.0	0.8475	-0.4331983805668016	-624.0	-301.0	0.21862348178137653	0.4434928888209207	-39.0	1.387430204059295	-101.0	-0.5385271096519038	-168.0	
0.06534149672905307	2016.0	10.105578244333879	1246.0	2085.0	0.2871023292515585	0.0	27521.0	2839.874267578125	860.0	0.8475	-0.4331983805668016	-624.0	-301.0	0.21862348178137653	0.16822144058724578	-58.0	0.14968722472378856	-20.0	-0.25935934994088555	-150.0	
0.07725229709019087	2023.0	10.106182089971467	1246.0	2084.0	0.2028961647703313	0.0	28161.0	2859.405517578125	860.0	0.8475	-0.4331983805668016	-624.0	-301.0	0.21862348178137653	0.3211500229392874	-66.0	-2.718468954215423	166.0	-0.16528504246527836	-160.0	
0.1722202264529722	2017.0	10.079165502440079	1248.0	2076.0	0.2755946689398373	0.0	28801.0	2878.936767578125	860.0	0.8475	-0.4331983805668016	-624.0	-301.0	0.21862348178137653	-0.18351429882244993	-58.0	-3.1430975774488017	195.0	-0.29228719796261143	-127.0	
0.14853618443976888	2016.0	10.091713682072127	1247.0	2078.0	0.28765698488343056	0.0	29441.0	2898.468017578125	866.0	0.8625	-0.451417004048583	-633.0	-295.0	0.20647773279352227	-0.29056430646887904	-50.0	-5.3677916373384145	340.0	-0.4372900078265068	-120.0	
0.08903035608760936	2021.0	10.093511799237126	1247.0	2083.0	0.22685692508778726	0.0	30081.0	2917.999267578125	866.0	0.8625	-0.451417004048583	-633.0	-295.0	0.20647773279352227	0.6881786205841872	-56.0	-2.485522962198017	150.0	-0.3164004191263534	-184.0	
0.0653427010653913	2017.0	10.105698677967702	1246.0	2085.0	0.275056557196514	0.0	30721.0	2937.530517578125	866.0	0.8625	-0.451417004048583	-633.0	-295.0	0.20647773279352227	-0.0764642911760208	-44.0	-2.5761448365794912	158.0	-0.501440441767667	-134.0	
-0.006191012639228249	2019.0	10.095184450362888	1247.0	2091.0	0.2500345499652028	0.0	31361.0	2957.061767578125	867.0	0.865	-0.4534412955465587	-634.0	-290.0	0.19635627530364372	-0.6575929041137789	-46.0	-1.95336115359675	119.0	-0.46452363762158977	-96.0	
0.11319719010216048	2018.0	10.12924281973986	1244.0	2081.0	0.2639577921512405	0.0	32001.0	2976.593017578125	867.0	0.865	-0.4534412955465587	-634.0	-290.0	0.19635627530364372	0.09175714941122497	-48.0	-4.290745639680348	269.0	-0.45720851516617594	-145.0	
0.14877637610410455	2013.0	10.115732848505694	1245.0	2078.0	0.32428434844199827	0.0	32641.0	2996.124267578125	867.0	0.865	-0.4534412955465587	-634.0	-290.0	0.19635627530364372	-0.10705000764642914	-55.0	-3.6686397224543543	229.0	-0.3435760703870417	-132.0	
0.23209537482417203	2015.0	10.114299387179106	1245.0	2071.0	0.3009924836604986	0.0	33281.0	3015.655517578125	862.0	0.8525	-0.451417004048583	-633.0	-283.0	0.18218623481781376	-0.24468573176326658	-41.0	-0.7232710656489159	38.0	-0.528945155032736	-123.0	
0.13675692110601215	2017.0	10.104263539172644	1246.0	2079.0	0.27574199662101906	0.0	33921.0	3035.186767578125	862.0	0.8525	-0.451417004048583	-633.0	-283.0	0.18218623481781376	-0.09175714941122497	-51.0	-0.8847290003632081	48.0	-0.37711489779862983	-133.0	
0.029634386708742633	2016.0	10.106295813731407	1246.0	2088.0	0.2867596095393059	0.0	34561.0	3054.718017578125	862.0	0.8525	-0.451417004048583	-633.0	-283.0	0.18218623481781376	-0.16822144058724578	-40.0	-0.31089671000569197	11.0	-0.5401658951344287	-128.0	
-0.018215284982673594	2019.0	10.083233406494546	1248.0	2092.0	0.24967528636440153	0.0	35201.0	3074.249267578125	862.0	0.8525	-0.451417004048583	-633.0	-283.0	0.18218623481781376	-0.04587857470561248	-34.0	0.2695976525641775	-27.0	-0.6264278534574794	-136.0	
-0.017972684645661458	2018.0	10.107493440195759	1246.0	2092.0	0.26221110581288026	0.0	35841.0	3093.780517578125	867.0	0.865	-0.4574898785425101	-636.0	-291.0	0.19838056680161945	-0.7799357699954123	-42.0	1.066765109176806	-77.0	-0.4957003096263539	-88.0	
0.14853257143075416	2013.0	10.091352381170656	1247.0	2078.0	0.323794301048564	0.0	36481.0	3113.311767578125	867.0	0.865	-0.4574898785425101	-636.0	-291.0	0.19838056680161945	0.10705000764642914	-48.0	1.2918407325306878	-94.0	-0.40138265144406554	-146.0	
0.1963882648038616	2015.0	10.115016956576635	1245.0	2074.0	0.30064976394824605	0.0	37121.0	3132.843017578125	867.0	0.865	-0.4574898785425101	-636.0	-291.0	0.19838056680161945	0.5199571799969415	-50.0	2.2593847301901038	-158.0	-0.36101824415122163	-173.0	
0.22019902649909306	2020.0	10.115140745147402	1245.0	2072.0	0.24064938348119197	0.0	37761.0	3152.374267578125	875.0	0.885	-0.46153846153846156	-638.0	-293.0	0.20242914979757085	-0.24468573176326658	-41.0	-0.56946395751186	28.0	-0.5274070839513654	-123.0	
0.10069614743905854	2027.0	10.069614743905856	1249.0	2082.0	0.15420648526817032	0.0	38401.0	3171.905517578125	875.0	0.885	-0.46153846153846156	-638.0	-293.0	0.20242914979757085	0.24468573176326658	-53.0	-1.6982891912731808	100.0	-0.35456153239147975	-155.0	
0.10081684543939548	2026.0	10.081684543939549	1248.0	2082.0	0.16649728101993194	0.0	39041.0	3191.436767578125	875.0	0.885	-0.46153846153846156	-638.0	-293.0	0.20242914979757085	-0.5199571799969415	-57.0	-5.559640086910633	353.0	-0.3317971067153547	-105.0	
0.23208694446980438	2008.0	10.113456351742341	1245.0	2071.0	0.38531288804580993	0.0	39681.0	3210.968017578125	875.0	0.885	-0.46153846153846156	-638.0	-293.0	0.20242914979757085	0.09175714941122497	-54.0	-5.091463178954829	321.0	-0.3731487886101713	-145.0	
0.20816632380128006	2013.0	10.102346665842292	1246.0	2073.0	0.324610524265702	0.0	40321.0	3230.499267578125	873.0	0.88	-0.46558704453441296	-640.0	-284.0	0.18421052631578946	0.09175714941122497	-47.0	-1.3067343123278323	75.0	-0.4427128855507757	-145.0	
0.2201869831357107	2010.0	10.113936408809165	1245.0	2072.0	0.3611071040316368	0.0	40961.0	3250.030517578125	873.0	0.88	-0.46558704453441296	-640.0	-284.0	0.18421052631578946	0.3211500229392874	-53.0	-0.8861697839672437	47.0	-0.34644033831842036	-160.0	
0.0773717907541896	2021.0	10.118131456371339	1245.0	2084.0	0.2272327325771374	0.0	41601.0	3269.561767578125	873.0	0.88	-0.46558704453441296	-640.0	-284.0	0.18421052631578946	0.030585716470408322	-59.0	-1.3984131184772814	81.0	-0.2594958697147713	-141.0	
0.12473385309890507	2018.0	10.092432928938127	1247.0	2080.0	0.26333696096517323	0.0	42241.0	3289.093017578125	870.0	0.8725	-0.46558704453441296	-640.0	-273.0	0.16194331983805668	-0.1529285823520416	-58.0	-4.005640689344498	251.0	-0.3009126290815684	-129.0	
0.005950344695539317	2015.0	10.118843993363456	1245.0	2090.0	0.2988219254828992	0.0	42881.0	3308.624267578125	870.0	0.8725	-0.46558704453441296	-640.0	-273.0	0.16194331983805668	0.13763572411683744	-36.0	-2.198962774585081	133.0	-0.6204244904127222	-148.0	
0.17270181411798177	2012.0	10.127324268941036	1244.0	2076.0	0.3368036240019282	0.0	43521.0	3328.155517578125	870.0	0.8725	-0.46558704453441296	-640.0	-273.0	0.16194331983805668	0.41290717235051233	-58.0	-1.475073861340766	85.0	-0.2756069608015311	-166.0	
0.2557758038283606	2013.0	10.101389906645586	1246.0	2069.0	0.3250674838820387	0.0	44161.0	3347.686767578125	879.0	0.895	-0.4676113360323887	-641.0	-274.0	0.16396761133603238	0.6423000458785748	-58.0	-0.5614060099798072	25.0	-0.26647028228792147	-181.0	
0.11307649210182354	2019.0	10.117173019706163	1245.0	2081.0	0.25166699639947887	0.0	44801.0	3367.218017578125	879.0	0.895	-0.4676113360323887	-641.0	-274.0	0.16396761133603238	-0.015292858235204161	-47.0	-1.7023512213355354	101.0	-0.4466690546408527	-138.0	
0.10104740241302526	2015.0	10.104740241302526	1246.0	2082.0	0.2994908210188555	0.0	45441.0	3386.749267578125	879.0	0.895	-0.4676113360323887	-641.0	-274.0	0.16396761133603238	0.7799357699954123	-47.0	-2.3032434859754134	138.0	-0.4526779772872515	-190.0	
-0.006312914975903444	2019.0	10.082994216695369	1248.0	2091.0	0.24978952626848572	0.0	46081.0	3406.280517578125	879.0	0.895	-0.4676113360323887	-641.0	-274.0	0.16396761133603238	0.22939287352806242	-58.0	-1.0678355422153196	59.0	-0.2715345776102766	-154.0	
0.07712196439914804	2016.0	10.093148820867183	1247.0	2084.0	0.2869715454589255	0.0	46721.0	3425.811767578125	876.0	0.8875000000000001	-0.46558704453441296	-640.0	-276.0	0.1680161943319838	-0.0764642911760208	-44.0	-2.5146219933246687	154.0	-0.5008252133351188	-134.0	
0.25566112750971487	2019.0	10.089922274781012	1247.0	2069.0	0.2525478278550547	0.0	47361.0	3445.343017578125	876.0	0.8875000000000001	-0.46558704453441296	-640.0	-276.0	0.1680161943319838	0.565835754702554	-36.0	-1.7854291603958936	105.0	-0.6162891542708303	-176.0	
0.3036327015378063	2016.0	10.125174915685392	1244.0	2065.0	0.28987717472667623	0.0	48001.0	3464.874267578125	876.0	0.8875000000000001	-0.46558704453441296	-640.0	-276.0	0.1680161943319838	0.3211500229392874	-46.0	-2.8384460508524296	174.0	-0.47337448659414655	-160.0	
0.17246282678998434	2016.0	10.103425536141291	1246.0	2076.0	0.28813048838831606	0.0	48641.0	3484.405517578125	873.0	0.88	-0.4716599190283401	-643.0	-279.0	0.17408906882591094	0.5352500382321457	-45.0	-1.724063876255575	101.0	-0.4775751485063029	-174.0	
0.04141846738785231	2019.0	10.094227691166184	1247.0	2087.0	0.25049150958153954	0.0	49281.0	3503.936767578125	873.0	0.88	-0.4716599190283401	-643.0	-279.0	0.17408906882591094	0.4434928888209207	-42.0	-1.5968879822804838	93.0	-0.5223368405409269	-168.0	
0.05356223339529635	2017.0	10.118128101434397	1245.0	2086.0	0.27518734098914693	0.0	49921.0	3523.468017578125	873.0	0.88	-0.4716599190283401	-643.0	-279.0	0.17408906882591094	0.42820003058571654	-58.0	-3.0445180175028272	187.0	-0.2913014023631517	-167.0	
0.02987819138209301	2016.0	10.130676281066446	1244.0	2088.0	0.2872496569327402	0.0	50561.0	3542.999267578125	873.0	0.88	-0.4716599190283401	-643.0	-279.0	0.17408906882591094	0.33644288117449156	-50.0	-2.4397729408347035	148.0	-0.4080098208614697	-161.0	
0.14853859311244536	2018.0	10.091954549339775	1247.0	2078.0	0.2635654407733416	0.0	51201.0	3562.530517578125	878.0	0.8925000000000001	-0.4676113360323887	-641.0	-271.0	0.15789473684210525	0.6423000458785748	-57.0	0.23854438182651505	-27.0	-0.2738152620279831	-181.0	
0.07736817774517488	2018.0	10.117770155469868	1245.0	2084.0	0.2633700487422708	0.0	51841.0	3582.061767578125	878.0	0.8925000000000001	-0.4676113360323887	-641.0	-271.0	0.15789473684210525	-0.21410001529285827	-54.0	-3.1104991315186794	193.0	-0.3533391481358098	-125.0	
0.07712557740816274	2019.0	10.093510121768656	1247.0	2084.0	0.25083422929379207	0.0	52481.0	3601.593017578125	878.0	0.8925000000000001	-0.4676113360323887	-641.0	-271.0	0.15789473684210525	0.16822144058724578	-61.0	-3.588285791487564	223.0	-0.2507056291286243	-150.0	
0.1961504818122024	2020.0	10.091238657410717	1247.0	2074.0	0.23993085627958935	0.0	53121.0	3621.124267578125	880.0	0.8975	-0.4716599190283401	-643.0	-277.0	0.1700404858299595	0.6728857623489831	-58.0	-3.115827311383118	191.0	-0.29201449530195456	-183.0	
0.16043253276484784	2011.0	10.090872324103833	1247.0	2077.0	0.34800008506273716	0.0	53761.0	3640.655517578125	880.0	0.8975	-0.4716599190283401	-643.0	-277.0	0.1700404858299595	0.0	-53.0	-2.2422083299411137	136.0	-0.36000072377815906	-139.0	
-0.029878667661446312	2015.0	10.107371329093464	1246.0	2093.0	0.29823418207392954	0.0	54401.0	3660.186767578125	880.0	0.8975	-0.4716599190283401	-643.0	-277.0	0.1700404858299595	0.1529285823520416	-47.0	-0.2940540112796309	9.0	-0.4325860825402936	-149.0	
0.029391786371730497	2017.0	10.082035780030193	1248.0	2088.0	0.2742237900908272	0.0	55041.0	3679.718017578125	877.0	0.89	-0.4736842105263158	-644.0	-278.0	0.17206477732793524	0.25997858999847073	-37.0	0.5952799387029696	-49.0	-0.5771375796217167	-156.0	
0.18461141014278135	2018.0	10.127807680944802	1244.0	2075.0	0.26464323157574554	0.0	55681.0	3699.249267578125	877.0	0.89	-0.4736842105263158	-644.0	-278.0	0.17206477732793524	0.42820003058571654	-46.0	-1.73531644441427	102.0	-0.46234319052976497	-167.0	
0.2556551058280237	2014.0	10.089320106611893	1247.0	2069.0	0.3127766881302771	0.0	56321.0	3718.780517578125	877.0	0.89	-0.4736842105263158	-644.0	-278.0	0.17206477732793524	0.33644288117449156	-57.0	-3.5636388366906346	221.0	-0.3118370942131547	-161.0	
0.06522320740139259	2019.0	10.093749311567832	1247.0	2085.0	0.25071998938970785	0.0	56961.0	3738.311767578125	877.0	0.89	-0.4736842105263158	-644.0	-278.0	0.17206477732793524	0.3211500229392874	-39.0	-1.5607730468594432	91.0	-0.5680091421610911	-160.0	
0.1841201877870659	2015.0	10.078685445373255	1248.0	2075.0	0.2998004529540105	0.0	57601.0	3757.843017578125	882.0	0.9025	-0.4757085020242915	-645.0	-279.0	0.17408906882591094	0.04587857470561248	-53.0	-3.5975458410394805	224.0	-0.37355409888914276	-142.0	
-0.07760764135252558	2017.0	10.096378721890298	1247.0	2097.0	0.2734406546507867	0.0	58241.0	3777.374267578125	882.0	0.9025	-0.4757085020242915	-645.0	-279.0	0.17408906882591094	0.0764642911760208	-52.0	0.015851323346780175	-11.0	-0.35276461090340505	-144.0	
0.14866410845813524	2021.0	10.104506083908763	1246.0	2078.0	0.2276731483049253	0.0	58881.0	3796.905517578125	882.0	0.9025	-0.4757085020242915	-645.0	-279.0	0.17408906882591094	0.36702859764489987	-56.0	-0.2424751777647801	5.0	-0.29396994128202103	-163.0	
0.17246523546266082	2018.0	10.103666403408939	1246.0	2076.0	0.2640389442782271	0.0	59521.0	3816.436767578125	887.0	0.915	-0.49190283400809715	-653.0	-275.0	0.1659919028340081	0.41290717235051233	-52.0	-1.858671054721614	110.0	-0.371509834684089	-166.0	
0.1604409631192155	2018.0	10.091715359540597	1247.0	2077.0	0.26367968067742575	0.0	60161.0	3835.968017578125	887.0	0.915	-0.49190283400809715	-653.0	-275.0	0.1659919028340081	0.5811286129377581	-53.0	-2.4961618123821845	151.0	-0.3625402586025698	-177.0	
0.22007351115340315	2017.0	10.10258921057841	1246.0	2072.0	0.27654167594960827	0.0	60801.0	3855.499267578125	887.0	0.915	-0.49190283400809715	-653.0	-275.0	0.1659919028340081	-0.12234286588163329	-34.0	-0.23490753846764797	6.0	-0.6314729053677977	-131.0	
-0.053801697002647045	2018.0	10.096020775925771	1247.0	2095.0	0.2616233624039106	0.0	61441.0	3875.030517578125	887.0	0.915	-0.49190283400809715	-653.0	-275.0	0.1659919028340081	0.48937146352653316	-44.0	0.769599664550637	-61.0	-0.4679829967563657	-171.0	
0.05356223339529635	2017.0	10.118128101434397	1245.0	2086.0	0.27518734098914693	0.0	62081.0	3894.561767578125	882.0	0.9025	-0.4736842105263158	-644.0	-283.0	0.18218623481781376	0.7034714788193914	-50.0	1.6060550380453682	-116.0	-0.36755154107266896	-185.0	
0.08914864541526982	2018.0	10.105340732003173	1246.0	2083.0	0.26323926494963784	0.0	62721.0	3914.093017578125	882.0	0.9025	-0.4736842105263158	-644.0	-283.0	0.18218623481781376	0.2752714482336749	-48.0	-0.19143569039005773	2.0	-0.416215415673273	-157.0	
0.04141365004249936	2015.0	10.093745956630888	1247.0	2087.0	0.29867459780171746	0.0	63361.0	3933.624267578125	882.0	0.9025	-0.4736842105263158	-644.0	-283.0	0.18218623481781376	0.5199571799969415	-54.0	0.013187233414561024	-12.0	-0.32210228448647743	-173.0	
0.20829424781964645	2018.0	10.11513906767893	1245.0	2073.0	0.26462668768719677	0.0	64001.0	3953.155517578125	883.0	0.905	-0.4858299595141701	-650.0	-282.0	0.18016194331983806	0.6423000458785748	-45.0	-0.37484289679812566	13.0	-0.4640829387117284	-181.0	
-0.006070314638891308	2018.0	10.107254250396583	1246.0	2091.0	0.2623253457169644	0.0	64641.0	3972.686767578125	883.0	0.905	-0.4858299595141701	-650.0	-282.0	0.18016194331983806	0.1529285823520416	-60.0	-0.972799870499891	53.0	-0.2398952535768725	-149.0	
0.1489006871134562	2015.0	10.128163949440859	1244.0	2078.0	0.30043782802862645	0.0	65281.0	3992.218017578125	883.0	0.905	-0.4858299595141701	-650.0	-282.0	0.18016194331983806	0.7799357699954123	-41.0	1.7735654566183578	-127.0	-0.5039767898100632	-190.0	
0.17270904013601118	2018.0	10.128046870743978	1244.0	2076.0	0.26452899167166133	0.0	385.0	4011.749267578125	891.0	0.925	-0.4898785425101215	-652.0	-290.0	0.19635627530364372	0.030585716470408322	-49.0	-0.19718338007192707	3.0	-0.40092840891196685	-141.0	
0.1249728404269025	2014.0	10.116331661737869	1245.0	2080.0	0.3120100965787854	0.0	1025.0	4031.280517578125	891.0	0.925	-0.4898785425101215	-652.0	-290.0	0.19635627530364372	0.04587857470561248	-45.0	-0.058754917938141034	-6.0	-0.4609220589231286	-142.0	
0.148662904121797	2020.0	10.104385650274939	1246.0	2078.0	0.23971892035996978	0.0	1665.0	4050.811767578125	891.0	0.925	-0.4898785425101215	-652.0	-290.0	0.19635627530364372	0.48937146352653316	-54.0	0.06055267218386129	-15.0	-0.3216286300987844	-171.0	
0.17258713779933602	2018.0	10.115856637076458	1245.0	2076.0	0.26428396797494424	0.0	2305.0	4070.343017578125	891.0	0.925	-0.4898785425101215	-652.0	-290.0	0.19635627530364372	0.6575929041137789	-53.0	-1.5917581401940135	92.0	-0.3534962218806881	-182.0	
0.08890243206924298	2016.0	10.080719397400488	1248.0	2083.0	0.2868407616662926	0.0	2945.0	4089.874267578125	885.0	0.91	-0.5	-657.0	-292.0	0.20040485829959515	0.5046643217617374	-65.0	-1.6951477381726179	99.0	-0.17039631396297525	-172.0	
0.14853377576709242	2014.0	10.09147281480448	1247.0	2078.0	0.3117485289935195	0.0	3585.0	4109.405517578125	885.0	0.91	-0.5	-657.0	-292.0	0.20040485829959515	0.3058571647040832	-53.0	-0.6087053361564515	29.0	-0.3436656938403125	-159.0	
0.13663140576032226	2014.0	10.091712004603655	1247.0	2079.0	0.31163428908943536	0.0	4225.0	4128.936767578125	885.0	0.91	-0.5	-657.0	-292.0	0.20040485829959515	0.5046643217617374	-45.0	-0.4308608615761222	17.0	-0.4646431183595084	-172.0	
0.10105342409471645	2020.0	10.105342409471644	1246.0	2082.0	0.23926196074363307	0.0	4865.0	4148.468017578125	886.0	0.9125	-0.5222672064777328	-668.0	-286.0	0.1882591093117409	0.24468573176326658	-64.0	0.3148962008922999	-31.0	-0.16564035823045098	-155.0	
0.02951489304474393	2018.0	10.094346447331537	1247.0	2088.0	0.26242304173249986	0.0	5505.0	4167.999267578125	886.0	0.9125	-0.5222672064777328	-668.0	-286.0	0.1882591093117409	0.0764642911760208	-52.0	-0.23024004967250916	5.0	-0.35522552463359797	-144.0	
0.10104860674936349	2016.0	10.104860674936349	1246.0	2082.0	0.287445048963811	0.0	6145.0	4187.530517578125	886.0	0.9125	-0.5222672064777328	-668.0	-286.0	0.1882591093117409	-0.0764642911760208	-44.0	-1.207261574159694	69.0	-0.487751609143469	-134.0	
0.10116930474970046	2015.0	10.116930474970045	1245.0	2082.0	0.29973584471557263	0.0	6785.0	4207.061767578125	886.0	0.9125	-0.5222672064777328	-668.0	-286.0	0.1882591093117409	0.21410001529285827	-51.0	-1.496809785379561	87.0	-0.3832357056487934	-153.0	
0.04153675671551278	2016.0	10.106056623932231	1246.0	2087.0	0.2868738494433901	0.0	7425.0	4226.593017578125	894.0	0.9325	-0.4979757085020243	-656.0	-292.0	0.20040485829959515	0.3976143141153082	-46.0	-1.1342454163515685	63.0	-0.456332480249138	-165.0	
0.017735629710987202	2019.0	10.106896304432054	1246.0	2089.0	0.2505080534700883	0.0	8065.0	4246.124267578125	894.0	0.9325	-0.4979757085020243	-656.0	-292.0	0.20040485829959515	-0.09175714941122497	-36.0	-1.836031628408476	110.0	-0.6167951789509561	-133.0	
0.08914744107893159	2017.0	10.10522029836935	1246.0	2083.0	0.2752850370046823	0.0	8705.0	4265.655517578125	894.0	0.9325	-0.4979757085020243	-656.0	-292.0	0.20040485829959515	0.474078605291329	-50.0	-1.4916737488617835	86.0	-0.3985288289417405	-170.0	
0.18460538846109015	2013.0	10.127205512775683	1244.0	2075.0	0.32487209185096794	0.0	9345.0	4285.186767578125	893.0	0.93	-0.4979757085020243	-656.0	-291.0	0.19838056680161945	0.0	-34.0	-1.3318312315534786	77.0	-0.6424421422986559	-139.0	
0.06509889639204092	2017.0	10.081318210632665	1248.0	2085.0	0.27456650980307973	0.0	9985.0	4304.718017578125	893.0	0.93	-0.4979757085020243	-656.0	-291.0	0.19838056680161945	0.0764642911760208	-40.0	-1.951038506883952	117.0	-0.5565673131032112	-144.0	
0.16055925244687597	2015.0	10.103544292306644	1246.0	2077.0	0.30006202053927633	0.0	10625.0	4324.249267578125	893.0	0.93	-0.4979757085020243	-656.0	-291.0	0.19838056680161945	0.22939287352806242	-47.0	-1.2353356367361303	70.0	-0.44199889879485865	-154.0	
0.12472662708087565	2012.0	10.091710327135184	1247.0	2080.0	0.3356115932954401	0.0	11265.0	4343.780517578125	890.0	0.9225	-0.5121457489878543	-663.0	-290.0	0.19635627530364372	0.5199571799969415	-47.0	-0.33949510884524425	11.0	-0.4330404935159498	-173.0	
0.10104981108570173	2017.0	10.104981108570174	1246.0	2082.0	0.27539927690876653	0.0	11905.0	4363.311767578125	890.0	0.9225	-0.5121457489878543	-663.0	-290.0	0.19635627530364372	0.09175714941122497	-37.0	-0.12088528473618355	-2.0	-0.5842992318561083	-145.0	
0.1962663624671864	2015.0	10.102826722909116	1246.0	2074.0	0.30040474025152886	0.0	12545.0	4382.843017578125	890.0	0.9225	-0.5121457489878543	-663.0	-290.0	0.19635627530364372	0.36702859764489987	-33.0	0.437804976391799	-39.0	-0.640090263877328	-163.0	
-0.0892650023496071	2018.0	10.121118812658336	1245.0	2098.0	0.26177069008509235	0.0	13185.0	4402.374267578125	890.0	0.9225	-0.5121457489878543	-663.0	-290.0	0.19635627530364372	0.015292858235204161	-48.0	-0.3348446947375537	12.0	-0.41764950571674797	-140.0	
-0.017850782308986263	2018.0	10.119683673863278	1245.0	2092.0	0.2624561295095974	0.0	13825.0	4421.905517578125	896.0	0.9375	-0.5141700404858299	-664.0	-285.0	0.1862348178137652	0.25997858999847073	-47.0	-1.0058482808587301	55.0	-0.43970402523608465	-156.0	
0.23222089016986192	2018.0	10.126850921748098	1244.0	2071.0	0.2651001911920822	0.0	14465.0	4441.436767578125	896.0	0.9375	-0.5141700404858299	-664.0	-285.0	0.1862348178137652	0.9022786358770455	-58.0	-0.9101797516708898	47.0	-0.2699580197048323	-198.0	
0.017612523037973782	2018.0	10.094585637130713	1247.0	2089.0	0.26230880182841565	0.0	15105.0	4460.968017578125	896.0	0.9375	-0.5141700404858299	-664.0	-285.0	0.1862348178137652	0.3211500229392874	-47.0	-1.223624844906975	69.0	-0.4418817908765671	-160.0	
0.2679292045265106	2019.0	10.126253785984392	1244.0	2068.0	0.25339713884929027	0.0	15745.0	4480.499267578125	896.0	0.9375	-0.5222672064777328	-668.0	-286.0	0.1882591093117409	0.474078605291329	-44.0	-2.644306482927911	161.0	-0.5021220582311512	-170.0	
0.17258593346299778	2017.0	10.115736203442635	1245.0	2076.0	0.2763297400299887	0.0	16385.0	4500.030517578125	896.0	0.9375	-0.5222672064777328	-668.0	-286.0	0.1882591093117409	0.7187643370545955	-53.0	-0.27146362287170045	6.0	-0.34029327670746495	-186.0	
0.07736697340883664	2017.0	10.117649721836045	1245.0	2084.0	0.2754158207973153	0.0	17025.0	4519.561767578125	896.0	0.9375	-0.5222672064777328	-668.0	-286.0	0.1882591093117409	0.5199571799969415	-49.0	0.3677107295979489	-35.0	-0.39527946781526807	-173.0	
-0.006195829984581194	2015.0	10.094702715827594	1247.0	2091.0	0.2982176381853807	0.0	17665.0	4539.093017578125	892.0	0.9275	-0.5080971659919028	-661.0	-291.0	0.19838056680161945	0.10705000764642914	-49.0	-0.3848101756568529	15.0	-0.40280467686781607	-146.0	
0.1366326100966605	2015.0	10.091832438237478	1247.0	2079.0	0.2995885170343909	0.0	18305.0	4558.624267578125	892.0	0.9275	-0.5080971659919028	-661.0	-291.0	0.19838056680161945	0.22939287352806242	-60.0	-1.6987515445645123	100.0	-0.2471547703175187	-154.0	
0.17233972011697093	2015.0	10.09111486883995	1247.0	2076.0	0.2999312367466434	0.0	18945.0	4578.155517578125	892.0	0.9275	-0.5080971659919028	-661.0	-291.0	0.19838056680161945	0.8258143447010247	-50.0	-0.6598026768820867	31.0	-0.3902101182219435	-193.0	
0.16080426145656457	2016.0	10.128045193275508	1244.0	2077.0	0.28850629587766613	0.0	19585.0	4597.686767578125	892.0	0.9275	-0.5080971659919028	-661.0	-291.0	0.19838056680161945	-0.16822144058724578	-47.0	-0.9579605706367497	53.0	-0.4392251481338649	-128.0	
-0.05392480367566048	2017.0	10.083710108624427	1248.0	2095.0	0.273424110762238	0.0	20225.0	4617.218017578125	898.0	0.9425	-0.5222672064777328	-668.0	-289.0	0.19433198380566802	0.474078605291329	-49.0	-1.1992868139077455	67.0	-0.410949443250325	-170.0	
-0.05391757765763107	2023.0	10.08443271042737	1248.0	2095.0	0.2011494784319711	0.0	20865.0	4636.749267578125	898.0	0.9425	-0.5222672064777328	-668.0	-289.0	0.19433198380566802	0.5352500382321457	-67.0	-3.3424139605545626	206.0	-0.15618000887054487	-174.0	
0.0772498884175144	2021.0	10.10594122270382	1246.0	2084.0	0.22698770888042025	0.0	21505.0	4656.280517578125	898.0	0.9425	-0.5222672064777328	-668.0	-289.0	0.19433198380566802	0.3211500229392874	-47.0	-3.6845385750998685	229.0	-0.466490928178496	-160.0	
0.12497524909957897	2016.0	10.116572529005516	1245.0	2080.0	0.28791855246869646	0.0	22145.0	4675.811767578125	897.0	0.9400000000000001	-0.548582995951417	-681.0	-275.0	0.1659919028340081	0.41290717235051233	-51.0	-4.165624247283819	260.0	-0.40992385026783595	-166.0	
0.11294856808345716	2014.0	10.104380617869525	1246.0	2081.0	0.3116508329779841	0.0	22785.0	4695.343017578125	897.0	0.9400000000000001	-0.548582995951417	-681.0	-275.0	0.1659919028340081	0.24468573176326658	-41.0	-2.8038592159364	172.0	-0.5497510365356109	-155.0	
0.10080359773967489	2015.0	10.080359773967489	1248.0	2082.0	0.2990007736254212	0.0	23425.0	4714.874267578125	897.0	0.9400000000000001	-0.548582995951417	-681.0	-275.0	0.1659919028340081	0.3976143141153082	-60.0	-2.2438046078492175	135.0	-0.25260530095036576	-165.0	
-0.10116255501102431	2022.0	10.121839736992808	1245.0	2099.0	0.21347336196083025	0.0	24065.0	4734.405517578125	897.0	0.9400000000000001	-0.548582995951417	-681.0	-275.0	0.1659919028340081	0.3517357394096957	-50.0	-0.8100292477460036	42.0	-0.39171238393058266	-162.0	
-0.018099404327689583	2014.0	10.094821471992947	1247.0	2092.0	0.31014917033634104	0.0	24705.0	4753.936767578125	893.0	0.93	-0.5465587044534413	-680.0	-284.0	0.18421052631578946	0.764642911760208	-51.0	-0.9036008667386408	47.0	-0.37730361646238414	-189.0	
0.12472662708087565	2012.0	10.091710327135184	1247.0	2080.0	0.3356115932954401	0.0	25345.0	4773.468017578125	893.0	0.93	-0.5465587044534413	-680.0	-284.0	0.18421052631578946	0.7034714788193914	-41.0	-2.4069296188891025	145.0	-0.5457817405651378	-185.0	
0.11270235473743032	2012.0	10.07975928326684	1248.0	2081.0	0.33525232969463886	0.0	25985.0	4792.999267578125	893.0	0.93	-0.5465587044534413	-680.0	-284.0	0.18421052631578946	0.5199571799969415	-38.0	-0.9072005435096638	48.0	-0.5768179007857182	-173.0	
0.1842432944600793	2016.0	10.090996112674597	1247.0	2075.0	0.2879997045956831	0.0	26625.0	4812.530517578125	900.0	0.9475	-0.5526315789473685	-683.0	-287.0	0.1902834008097166	0.36702859764489987	-41.0	0.4673389620701551	-41.0	-0.5170390547555452	-163.0	
0.14841428210309368	2016.0	10.079523448404608	1248.0	2078.0	0.28741196118671347	0.0	27265.0	4832.061767578125	900.0	0.9475	-0.5526315789473685	-683.0	-287.0	0.1902834008097166	0.42820003058571654	-35.0	0.9426149616004525	-72.0	-0.6043531967089918	-167.0	
0.17258111611764482	2013.0	10.11525446890734	1245.0	2076.0	0.32451282825016664	0.0	27905.0	4851.593017578125	900.0	0.9475	-0.5526315789473685	-683.0	-287.0	0.1902834008097166	0.09175714941122497	-36.0	0.37145089079602706	-34.0	-0.5947203537589111	-145.0	
0.029633182372404407	2015.0	10.106175380097584	1246.0	2088.0	0.29880538159435044	0.0	28545.0	4871.124267578125	903.0	0.9550000000000001	-0.5566801619433198	-685.0	-288.0	0.19230769230769232	0.4434928888209207	-46.0	0.7403663434282374	-59.0	-0.4375863626513399	-168.0	
0.08914984975160806	2019.0	10.105461165636997	1246.0	2083.0	0.25119349289459336	0.0	29185.0	4890.655517578125	903.0	0.9550000000000001	-0.5566801619433198	-685.0	-288.0	0.19230769230769232	0.5352500382321457	-45.0	0.4138549268495014	-38.0	-0.4561959604752521	-174.0	
0.2438734338215905	2013.0	10.101629096444764	1246.0	2070.0	0.32495324397795455	0.0	29825.0	4910.186767578125	903.0	0.9550000000000001	-0.5566801619433198	-685.0	-288.0	0.19230769230769232	0.25997858999847073	-35.0	-0.8809614404255027	47.0	-0.6225889607292513	-156.0	
0.20816993681029478	2016.0	10.102707966743763	1246.0	2073.0	0.2884732081005686	0.0	30465.0	4929.718017578125	903.0	0.9550000000000001	-0.5566801619433198	-685.0	-288.0	0.19230769230769232	0.4434928888209207	-39.0	-0.6889657557909588	34.0	-0.5592910692504063	-168.0	
0.05344033105862116	2017.0	10.105937867766878	1246.0	2086.0	0.2749423172924298	0.0	31105.0	4949.249267578125	897.0	0.9400000000000001	-0.5607287449392713	-687.0	-293.0	0.20242914979757085	0.33644288117449156	-44.0	-1.6544361123739277	97.0	-0.4922233545256114	-161.0	
0.12473264876256683	2017.0	10.092312495304302	1247.0	2080.0	0.27538273302021776	0.0	31745.0	4968.780517578125	897.0	0.9400000000000001	-0.5607287449392713	-687.0	-293.0	0.20242914979757085	0.3976143141153082	-43.0	-1.3029729468214346	74.0	-0.5040532065282113	-165.0	
-0.005949616638554353	2017.0	10.11932405043028	1245.0	2091.0	0.27461614146872604	0.0	32385.0	4988.311767578125	897.0	0.9400000000000001	-0.5607287449392713	-687.0	-293.0	0.20242914979757085	0.2752714482336749	-42.0	-0.9287892324861344	50.0	-0.5156558530429832	-157.0	
0.1605604567832142	2016.0	10.103664725940469	1246.0	2077.0	0.2880162484842319	0.0	33025.0	5007.843017578125	899.0	0.9450000000000001	-0.5728744939271255	-693.0	-285.0	0.1862348178137652	0.8564000611714331	-49.0	-2.5834614054298366	156.0	-0.4247911891655459	-195.0	
0.10104619807668702	2014.0	10.104619807668701	1246.0	2082.0	0.31153659307389997	0.0	33665.0	5027.374267578125	899.0	0.9450000000000001	-0.5728744939271255	-693.0	-285.0	0.1862348178137652	-0.09175714941122497	-55.0	-2.208083848316416	134.0	-0.32897051164566227	-133.0	
0.20804923880995782	2017.0	10.09063816671007	1247.0	2073.0	0.27618241234880697	0.0	34305.0	5046.905517578125	899.0	0.9450000000000001	-0.5728744939271255	-693.0	-285.0	0.1862348178137652	0.749350053525004	-48.0	-2.548264982160151	154.0	-0.439783708590974	-188.0	
0.17258472912665954	2016.0	10.11561576980881	1245.0	2076.0	0.2883755120850332	0.0	34945.0	5066.436767578125	899.0	0.9450000000000001	-0.5728744939271255	-693.0	-285.0	0.1862348178137652	0.5505428964673498	-48.0	-2.3249835396350798	140.0	-0.43755089416572324	-175.0	
-0.04190173566855339	2016.0	10.095540718858947	1247.0	2094.0	0.28582914641808377	0.0	35585.0	5085.968017578125	904.0	0.9575	-0.5809716599190283	-697.0	-281.0	0.17813765182186236	0.25997858999847073	-44.0	-1.6206164249260577	95.0	-0.49188515765113267	-156.0	
0.10080239340333665	2014.0	10.080239340333664	1248.0	2082.0	0.3110465456804657	0.0	36225.0	5105.499267578125	904.0	0.9575	-0.5809716599190283	-697.0	-281.0	0.17813765182186236	-0.1529285823520416	-57.0	-1.3138628674523887	76.0	-0.28933933452077226	-129.0	
0.1129497724197954	2015.0	10.10450105150335	1246.0	2081.0	0.29960506092293965	0.0	36865.0	5125.030517578125	904.0	0.9575	-0.5809716599190283	-697.0	-281.0	0.17813765182186236	0.6270071876433706	-41.0	-0.8811809825117907	46.0	-0.5305242542013648	-180.0	
0.27958776985993034	2019.0	10.101634128850177	1246.0	2067.0	0.2530213313599402	0.0	37505.0	5144.561767578125	900.0	0.9475	-0.5890688259109311	-701.0	-279.0	0.17408906882591094	0.24468573176326658	-44.0	-1.6046240609482605	94.0	-0.4917252340113547	-155.0	
-0.19675203942056396	2018.0	10.086700819848366	1248.0	2107.0	0.26000745985818335	0.0	38145.0	5164.093017578125	900.0	0.9475	-0.5890688259109311	-701.0	-279.0	0.17408906882591094	0.5505428964673498	-46.0	-0.10985432347421209	-4.0	-0.44608856932036434	-175.0	
0.029756289045417827	2016.0	10.118486047398926	1245.0	2088.0	0.2870046332360231	0.0	38785.0	5183.624267578125	900.0	0.9475	-0.5890688259109311	-701.0	-279.0	0.17408906882591094	0.6728857623489831	-59.0	-0.4858791917330947	20.0	-0.25037053044732943	-183.0	
-0.006197034320919434	2014.0	10.09458228219377	1247.0	2091.0	0.31026341024042525	0.0	39425.0	5203.155517578125	899.0	0.9450000000000001	-0.5870445344129555	-700.0	-277.0	0.1700404858299595	0.3976143141153082	-40.0	-3.17895937761262	196.0	-0.5688465218104979	-165.0	
0.12485575543558025	2018.0	10.104623162605645	1246.0	2080.0	0.26358198466189037	0.0	40065.0	5222.686767578125	899.0	0.9450000000000001	-0.5870445344129555	-700.0	-277.0	0.1700404858299595	0.22939287352806242	-53.0	-0.3595556973167033	13.0	-0.34117419745191496	-154.0	
0.07712196439914804	2016.0	10.093148820867183	1247.0	2084.0	0.2869715454589255	0.0	40705.0	5242.218017578125	899.0	0.9450000000000001	-0.5870445344129555	-700.0	-277.0	0.1700404858299595	0.29056430646887904	-56.0	-1.1622595607666564	65.0	-0.3031677851120398	-158.0	
0.0534415353949594	2018.0	10.1060583014007	1246.0	2086.0	0.2628965452373853	0.0	41345.0	5261.749267578125	899.0	0.9450000000000001	-0.5870445344129555	-700.0	-277.0	0.1700404858299595	0.1988071570576541	-45.0	-1.9259374580374344	115.0	-0.4795938843241215	-152.0	
0.12485334676290377	2016.0	10.104382295337997	1246.0	2080.0	0.2876735287719794	0.0	41985.0	5281.280517578125	908.0	0.9675	-0.5951417004048583	-704.0	-281.0	0.17813765182186236	0.36702859764489987	-52.0	-2.149069600689745	129.0	-0.3744138201437703	-163.0	
0.12473505743524331	2019.0	10.09255336257195	1247.0	2080.0	0.25129118891012875	0.0	42625.0	5300.811767578125	908.0	0.9675	-0.5951417004048583	-704.0	-281.0	0.17813765182186236	0.3058571647040832	-56.0	-3.1777443305261794	196.0	-0.323322632809635	-159.0	
0.05332324606729893	2021.0	10.094229368634656	1247.0	2086.0	0.22651420537553474	0.0	43265.0	5320.343017578125	908.0	0.9675	-0.5951417004048583	-704.0	-281.0	0.17813765182186236	0.3976143141153082	-48.0	-3.3801360541398475	209.0	-0.44810241931077094	-165.0	
0.19614325579417297	2014.0	10.090516055607774	1247.0	2074.0	0.3122054886098562	0.0	43905.0	5339.874267578125	906.0	0.9625	-0.5931174089068826	-703.0	-276.0	0.1680161943319838	0.48937146352653316	-49.0	-2.1996446699627	132.0	-0.4209530218108746	-171.0	
0.0655840970660652	2015.0	10.129838278035093	1244.0	2085.0	0.2996381487000372	0.0	44545.0	5359.405517578125	906.0	0.9625	-0.5931174089068826	-703.0	-276.0	0.1680161943319838	0.1988071570576541	-56.0	-2.342904374437436	142.0	-0.31497423324874757	-152.0	
0.005950344695539317	2015.0	10.118843993363456	1245.0	2090.0	0.2988219254828992	0.0	45185.0	5378.936767578125	906.0	0.9625	-0.5931174089068826	-703.0	-276.0	0.1680161943319838	-0.04587857470561248	-51.0	-1.2403203085707117	71.0	-0.38067081088070487	-136.0	
0.029758697718094307	2018.0	10.118726914666574	1245.0	2088.0	0.26291308912593414	0.0	45825.0	5398.468017578125	906.0	0.9625	-0.5931174089068826	-703.0	-276.0	0.1680161943319838	-0.1529285823520416	-43.0	-0.5272986030425575	25.0	-0.4962964630904226	-129.0	
-0.08951001135929572	2017.0	10.096617911689476	1247.0	2098.0	0.27332641474670255	0.0	46465.0	5417.999267578125	899.0	0.9450000000000001	-0.5931174089068826	-703.0	-278.0	0.17206477732793524	0.36702859764489987	-49.0	-0.7489646281616412	38.0	-0.40644622139286396	-163.0	
0.07736697340883664	2017.0	10.117649721836045	1245.0	2084.0	0.2754158207973153	0.0	47105.0	5437.530517578125	899.0	0.9450000000000001	-0.5931174089068826	-703.0	-278.0	0.17206477732793524	0.5811286129377581	-57.0	-2.5121562411704175	152.0	-0.3013222682579525	-177.0	
-0.029995752652768562	2019.0	10.095662829961242	1247.0	2093.0	0.2498060701570345	0.0	47745.0	5457.061767578125	899.0	0.9450000000000001	-0.5931174089068826	-703.0	-278.0	0.17206477732793524	0.4434928888209207	-53.0	-2.213804139258658	133.0	-0.35971668187133454	-168.0	
-0.10140756402071292	2021.0	10.097338836023946	1247.0	2099.0	0.22502908662244045	0.0	48385.0	5476.593017578125	905.0	0.96	-0.6093117408906883	-711.0	-276.0	0.1680161943319838	0.24468573176326658	-52.0	-1.6058514968973154	94.0	-0.368981639105846	-155.0	
-0.017967867300308513	2022.0	10.107975174731054	1246.0	2092.0	0.21402801759270235	0.0	49025.0	5496.124267578125	905.0	0.96	-0.6093117408906883	-711.0	-276.0	0.1680161943319838	-0.04587857470561248	-43.0	-1.8235598835424691	109.0	-0.5092590758954216	-136.0	
0.041410037033484656	2012.0	10.093384655729418	1247.0	2087.0	0.3348119139668509	0.0	49665.0	5515.655517578125	905.0	0.96	-0.6093117408906883	-711.0	-276.0	0.1680161943319838	0.3211500229392874	-43.0	-2.4996101244700113	152.0	-0.516019578304697	-160.0	
0.18436760546943098	2018.0	10.103427213609763	1246.0	2075.0	0.26415318418231126	0.0	50305.0	5535.186767578125	903.0	0.9550000000000001	-0.631578947368421	-722.0	-276.0	0.1680161943319838	0.1529285823520416	-59.0	-3.6796515442184417	229.0	-0.2823082539721829	-149.0	
0.005716174712894831	2023.0	10.095426995099007	1247.0	2090.0	0.20196570164910907	0.0	50945.0	5554.718017578125	903.0	0.9550000000000001	-0.631578947368421	-722.0	-276.0	0.1680161943319838	0.015292858235204161	-39.0	-2.1176262836847144	128.0	-0.5735776745293438	-140.0	
0.07724627540849968	2018.0	10.105579921802349	1246.0	2084.0	0.2631250250455537	0.0	51585.0	5574.249267578125	903.0	0.9550000000000001	-0.631578947368421	-722.0	-276.0	0.1680161943319838	0.33644288117449156	-46.0	-2.239209982282004	135.0	-0.4673821259084423	-161.0	
0.16068115478355116	2015.0	10.115734525974164	1245.0	2077.0	0.3003070442359935	0.0	52225.0	5593.780517578125	903.0	0.9550000000000001	-0.631578947368421	-722.0	-276.0	0.1680161943319838	-0.1529285823520416	-52.0	-2.066750549855803	125.0	-0.3735906296354309	-129.0	
0.1961408471214965	2012.0	10.090275188340128	1247.0	2074.0	0.3362970327199452	0.0	52865.0	5613.311767578125	900.0	0.9475	-0.6234817813765182	-718.0	-290.0	0.19635627530364372	0.1988071570576541	-48.0	-0.6959408814218833	35.0	-0.42126046758359126	-152.0	
0.02951368870840569	2017.0	10.094226013697712	1247.0	2088.0	0.2744688137875443	0.0	53505.0	5632.843017578125	900.0	0.9475	-0.6234817813765182	-718.0	-290.0	0.19635627530364372	-0.0764642911760208	-55.0	-0.5629594444140101	27.0	-0.31251926760663823	-134.0	
0.017612523037973782	2018.0	10.094585637130713	1247.0	2089.0	0.26230880182841565	0.0	54145.0	5652.374267578125	900.0	0.9475	-0.6234817813765182	-718.0	-290.0	0.19635627530364372	-0.12234286588163329	-61.0	-0.5774257726972317	28.0	-0.22059702894072097	-131.0	
0.13688002777902558	2018.0	10.116574206473988	1245.0	2079.0	0.2639412482626917	0.0	54785.0	5671.905517578125	904.0	0.9575	-0.6275303643724697	-720.0	-297.0	0.21052631578947367	0.030585716470408322	-50.0	-0.5203317366533762	24.0	-0.3888154088196564	-141.0	
0.3035011645104252	2008.0	10.112021212947283	1245.0	2065.0	0.385998327470315	0.0	55425.0	5691.436767578125	904.0	0.9575	-0.6275303643724697	-720.0	-297.0	0.21052631578947367	0.12234286588163329	-43.0	-1.2150596357992547	69.0	-0.5031740734179896	-147.0	
0.08914623674259335	2016.0	10.105099864735525	1246.0	2083.0	0.28733080905972685	0.0	56065.0	5710.968017578125	904.0	0.9575	-0.6275303643724697	-720.0	-297.0	0.21052631578947367	-0.474078605291329	-50.0	-2.3458324798830184	144.0	-0.40707041625195284	-108.0	
-0.08938570034994409	2019.0	10.10904901262464	1246.0	2098.0	0.24947989433333073	0.0	56705.0	5730.499267578125	906.0	0.9625	-0.6336032388663968	-723.0	-298.0	0.2125506072874494	-0.09175714941122497	-36.0	-1.4361331472521308	84.0	-0.6127961941393927	-133.0	
0.029876987045754783	2015.0	10.130555847432623	1244.0	2088.0	0.29929542898778466	0.0	57345.0	5750.030517578125	906.0	0.9625	-0.6336032388663968	-723.0	-298.0	0.2125506072874494	-0.061171432940816645	-43.0	-1.161577665389037	66.0	-0.5026392537138874	-135.0	
-0.01809458698233664	2018.0	10.095303206528241	1247.0	2092.0	0.2619660821161631	0.0	57985.0	5769.561767578125	906.0	0.9625	-0.6336032388663968	-723.0	-298.0	0.2125506072874494	0.3517357394096957	-52.0	-0.9795239256840288	53.0	-0.36271836339371316	-162.0	
0.053190504703579604	2012.0	10.080955232262722	1248.0	2086.0	0.33468113017421797	0.0	58625.0	5789.093017578125	906.0	0.9625	-0.6336032388663968	-723.0	-298.0	0.2125506072874494	0.12234286588163329	-49.0	-1.339025899270691	77.0	-0.41234683410395445	-147.0	
0.10105101542203997	2018.0	10.105101542203997	1246.0	2082.0	0.26335350485372205	0.0	59265.0	5808.624267578125	900.0	0.9475	-0.6437246963562753	-728.0	-300.0	0.2165991902834008	-0.1988071570576541	-44.0	-2.2328759733652337	136.0	-0.4980077531355244	-126.0	
0.11307167475647059	2015.0	10.11669128517087	1245.0	2081.0	0.2998500846196568	0.0	59905.0	5828.155517578125	900.0	0.9475	-0.6437246963562753	-728.0	-300.0	0.2165991902834008	0.10705000764642914	-56.0	-2.769894358236642	170.0	-0.3192441330867396	-146.0	
-0.11331354703649775	2018.0	10.097216724921651	1247.0	2100.0	0.2610521628834897	0.0	60545.0	5847.686767578125	900.0	0.9475	-0.6437246963562753	-728.0	-300.0	0.2165991902834008	0.10705000764642914	-50.0	-1.6769433135017537	99.0	-0.40038152458814014	-146.0	
0.2679231828448194	2014.0	10.125651617815274	1244.0	2068.0	0.31362599912451267	0.0	61185.0	5867.218017578125	902.0	0.9525	-0.6619433198380567	-737.0	-312.0	0.2408906882591093	-0.12234286588163329	-35.0	-1.0502386410876758	59.0	-0.6242817327358731	-131.0	
-0.053670159975265974	2026.0	10.109174478663878	1246.0	2095.0	0.1655022096602719	0.0	61825.0	5886.749267578125	902.0	0.9525	-0.6619433198380567	-737.0	-312.0	0.2408906882591093	-0.36702859764489987	-39.0	-1.8870050031905425	114.0	-0.5712714617244021	-115.0	
0.1011741220950534	2019.0	10.11741220950534	1245.0	2082.0	0.2515527564953947	0.0	62465.0	5906.280517578125	902.0	0.9525	-0.6619433198380567	-737.0	-312.0	0.2408906882591093	-0.16822144058724578	-46.0	-2.095979741357331	127.0	-0.46594982349919556	-128.0	
0.1248509380902273	2014.0	10.10414142807035	1246.0	2080.0	0.31176507288206834	0.0	63105.0	5925.811767578125	902.0	0.9525	-0.6619433198380567	-737.0	-312.0	0.2408906882591093	0.2752714482336749	-44.0	-2.2672179322657837	137.0	-0.4983511727245299	-157.0	
0.16092255078422507	2013.0	10.139874126041553	1243.0	2077.0	0.3248886357395167	0.0	63745.0	5945.343017578125	905.0	0.96	-0.6781376518218624	-745.0	-315.0	0.24696356275303644	-0.41290717235051233	-43.0	-2.94705280781848	183.0	-0.5204940051381818	-112.0	
0.1843651967967545	2016.0	10.103186346342115	1246.0	2075.0	0.2882447282924002	0.0	64385.0	5964.874267578125	905.0	0.96	-0.6781376518218624	-745.0	-315.0	0.24696356275303644	0.474078605291329	-44.0	-2.121362315261921	127.0	-0.4968926165544913	-170.0	
0.14889948277711795	2014.0	10.128043515807036	1244.0	2078.0	0.31248360008367093	0.0	65025.0	5984.405517578125	905.0	0.96	-0.6781376518218624	-745.0	-315.0	0.24696356275303644	0.030585716470408322	-55.0	-3.1512004332651906	195.0	-0.33840167749515004	-141.0	
0.14877878477678103	2015.0	10.11597371577334	1245.0	2078.0	0.3001928043319093	0.0	129.0	6003.936767578125	897.0	0.9400000000000001	-0.688259109311741	-750.0	-295.0	0.20647773279352227	0.1529285823520416	-51.0	-2.463347953986646	150.0	-0.3929010873348642	-149.0	
0.2318527744871599	2016.0	10.090039353477893	1247.0	2071.0	0.2884566642120198	0.0	769.0	6023.468017578125	897.0	0.9400000000000001	-0.688259109311741	-750.0	-295.0	0.20647773279352227	0.48937146352653316	-43.0	-2.6909068390394877	164.0	-0.5179325454503918	-171.0	
0.017730812365634258	2015.0	10.10641456989676	1246.0	2089.0	0.2986911416902662	0.0	1409.0	6042.999267578125	897.0	0.9400000000000001	-0.688259109311741	-750.0	-295.0	0.20647773279352227	0.36702859764489987	-54.0	-2.1955185921181255	132.0	-0.3441893427418043	-163.0	
-0.05391878199396931	2022.0	10.084312276793545	1248.0	2095.0	0.21319525048701557	0.0	2049.0	6062.530517578125	897.0	0.9400000000000001	-0.7145748987854251	-763.0	-319.0	0.2550607287449393	0.18351429882244993	-30.0	-1.6923137002632804	100.0	-0.7074249016182536	-151.0	
0.23197106381482036	2013.0	10.10186828624394	1246.0	2071.0	0.3248390040738704	0.0	2689.0	6082.061767578125	897.0	0.9400000000000001	-0.7145748987854251	-763.0	-319.0	0.2550607287449393	0.6575929041137789	-43.0	-2.805299999540436	171.0	-0.5190764770554014	-182.0	
0.20792492780060617	2015.0	10.078207065774903	1248.0	2073.0	0.3000289327621788	0.0	3329.0	6101.593017578125	897.0	0.9400000000000001	-0.7145748987854251	-763.0	-319.0	0.2550607287449393	0.061171432940816645	-43.0	-1.058805915005832	59.0	-0.5016115362100553	-143.0	
0.3630178318896289	2012.0	10.111306998486697	1245.0	2060.0	0.33838643877055796	0.0	3969.0	6121.124267578125	897.0	0.9400000000000001	-0.7145748987854251	-763.0	-319.0	0.2550607287449393	-0.030585716470408322	-55.0	-1.395352787846387	81.0	-0.320843201040962	-137.0	
-0.08962830068695622	2020.0	10.084788978923427	1248.0	2098.0	0.236944074884852	0.0	4609.0	6140.655517578125	905.0	0.96	-0.6983805668016194	-755.0	-326.0	0.2692307692307692	-0.3976143141153082	-55.0	-0.6116375712229055	31.0	-0.31300604887472716	-113.0	
0.1727066314633347	2016.0	10.12780600347633	1244.0	2076.0	0.2886205357817503	0.0	5249.0	6160.186767578125	905.0	0.96	-0.6983805668016194	-755.0	-326.0	0.2692307692307692	0.36702859764489987	-40.0	-0.5476345221407817	25.0	-0.5425332732557795	-163.0	
0.1606823591198894	2016.0	10.115854959607988	1245.0	2077.0	0.288261272180949	0.0	5889.0	6179.718017578125	905.0	0.96	-0.6983805668016194	-755.0	-326.0	0.2692307692307692	-0.22939287352806242	-48.0	-0.9556673874740145	53.0	-0.42385773264411264	-124.0	
0.07712196439914804	2016.0	10.093148820867183	1247.0	2084.0	0.2869715454589255	0.0	6529.0	6199.249267578125	901.0	0.9500000000000001	-0.7024291497975709	-757.0	-323.0	0.2631578947368421	-0.16822144058724578	-43.0	-0.7881590337114607	42.0	-0.49890506739711155	-128.0	
0.08914503240625511	2015.0	10.104979431101702	1246.0	2083.0	0.2993765811147713	0.0	7169.0	6218.780517578125	901.0	0.9500000000000001	-0.7024291497975709	-757.0	-323.0	0.2631578947368421	0.16822144058724578	-36.0	-0.8159221076797618	43.0	-0.606594083743669	-150.0	
0.08914864541526982	2018.0	10.105340732003173	1246.0	2083.0	0.26323926494963784	0.0	7809.0	6238.311767578125	901.0	0.9500000000000001	-0.7024291497975709	-757.0	-323.0	0.2631578947368421	-0.09175714941122497	-49.0	-0.6690921899840662	34.0	-0.4056474970110882	-133.0	
0.08902674307859465	2018.0	10.093150498335655	1247.0	2083.0	0.2629942412529207	0.0	8449.0	6257.843017578125	901.0	0.9500000000000001	-0.7024291497975709	-757.0	-323.0	0.2631578947368421	0.1529285823520416	-54.0	-0.8642143178421607	46.0	-0.3308762999990446	-149.0	
0.08914744107893159	2017.0	10.10522029836935	1246.0	2083.0	0.2752850370046823	0.0	9089.0	6277.374267578125	898.0	0.9425	-0.708502024291498	-760.0	-328.0	0.2732793522267207	0.18351429882244993	-51.0	-0.8188352032483318	43.0	-0.37645595982748103	-151.0	
0.08902433440591817	2016.0	10.092909631068007	1247.0	2083.0	0.28708578536300966	0.0	9729.0	6296.905517578125	898.0	0.9425	-0.708502024291498	-760.0	-328.0	0.2732793522267207	0.10705000764642914	-59.0	-0.8477657950043392	45.0	-0.2539893964800419	-146.0	
0.07736697340883664	2017.0	10.117649721836045	1245.0	2084.0	0.2754158207973153	0.0	10369.0	6316.436767578125	898.0	0.9425	-0.708502024291498	-760.0	-328.0	0.2732793522267207	0.015292858235204161	-57.0	-0.8284083062188193	44.0	-0.2844847889084365	-140.0	
0.08902553874225641	2017.0	10.093030064701832	1247.0	2083.0	0.27504001330796524	0.0	11009.0	6335.968017578125	900.0	0.9475	-0.7004048582995952	-756.0	-319.0	0.2550607287449393	0.12234286588163329	-44.0	-0.8306952949502471	44.0	-0.48398594635137454	-147.0	
0.08914744107893159	2017.0	10.10522029836935	1246.0	2083.0	0.2752850370046823	0.0	11649.0	6355.499267578125	900.0	0.9475	-0.7004048582995952	-756.0	-319.0	0.2550607287449393	0.10705000764642914	-51.0	-0.7388733833593452	38.0	-0.3756563416285912	-146.0	
-1.5177498517271981	2054.0	10.129776732042101	1247.0	2218.0	-0.1860759397800444	0.0	12289.0	6375.030517578125	900.0	0.9475	-0.7004048582995952	-756.0	-319.0	0.2550607287449393	-0.18351429882244993	-49.0	-0.8653715115776881	47.0	-0.40761029022702444	-127.0	
0.5177329856052436	1999.0	10.106631893857697	1245.0	2047.0	0.49646659423923045	0.0	12929.0	6394.561767578125	903.0	0.9550000000000001	-0.7105263157894737	-761.0	-329.0	0.27530364372469635	2.263343018810216	-38.0	4.3447969373260085	-298.0	-0.5242979259773615	-287.0	
0.23197106381482036	2013.0	10.10186828624394	1246.0	2071.0	0.3248390040738704	0.0	13569.0	6414.093017578125	903.0	0.9550000000000001	-0.7105263157894737	-761.0	-329.0	0.27530364372469635	-0.1529285823520416	-38.0	0.042554844532708525	-12.0	-0.5673203469052944	-129.0	
0.18436399246041626	2015.0	10.103065912708292	1246.0	2075.0	0.3002905003474447	0.0	14209.0	6433.624267578125	903.0	0.9550000000000001	-0.7105263157894737	-761.0	-329.0	0.27530364372469635	-0.030585716470408322	-46.0	-0.7018399357869487	36.0	-0.45200842544349173	-137.0	
-0.2562506417546941	2029.0	10.089221538816307	1248.0	2112.0	0.1269327677322732	0.0	14849.0	6453.155517578125	903.0	0.9550000000000001	-0.7105263157894737	-761.0	-329.0	0.27530364372469635	-0.18351429882244993	-48.0	-1.0344059010348177	58.0	-0.42464511777972064	-127.0	
0.13687159742465793	2011.0	10.115731171037222	1245.0	2079.0	0.3482616526480031	0.0	15489.0	6472.686767578125	896.0	0.9375	-0.7125506072874495	-762.0	-331.0	0.2793522267206478	0.382321455880104	-50.0	-1.3495774325538825	77.0	-0.3971078657786615	-164.0	
-0.05380049266630883	2019.0	10.096141209559594	1247.0	2095.0	0.24957759034886612	0.0	16129.0	6492.218017578125	896.0	0.9375	-0.7125506072874495	-762.0	-331.0	0.2793522267206478	-0.0764642911760208	-35.0	0.11686042126167331	-17.0	-0.6126107421123795	-134.0	
0.10129241142271386	2016.0	10.129241142271388	1244.0	2082.0	0.28793509635724523	0.0	16769.0	6511.749267578125	896.0	0.9375	-0.7125506072874495	-762.0	-331.0	0.2793522267206478	0.25997858999847073	-47.0	1.7011568223534528	-121.0	-0.41263397420396286	-156.0	
-0.006317732321256389	2015.0	10.082512482160075	1248.0	2091.0	0.29797261448866363	0.0	17409.0	6531.280517578125	901.0	0.9500000000000001	-0.7206477732793523	-766.0	-335.0	0.2874493927125506	0.09175714941122497	-47.0	1.231082971933589	-90.0	-0.41733471270816147	-145.0	
-0.005947207965877874	2019.0	10.119564917697925	1245.0	2091.0	0.2505245973586371	0.0	18049.0	6550.811767578125	901.0	0.9500000000000001	-0.7206477732793523	-766.0	-335.0	0.2874493927125506	0.41290717235051233	-46.0	-0.9502885397511934	51.0	-0.4544929114831342	-166.0	
0.1490262024591461	2018.0	10.14071548400985	1243.0	2078.0	0.2645455355602101	0.0	18689.0	6570.343017578125	901.0	0.9500000000000001	-0.7206477732793523	-766.0	-335.0	0.2874493927125506	0.5352500382321457	-49.0	-0.6634085480844171	32.0	-0.4055906605920917	-174.0	
0.18436399246041626	2015.0	10.103065912708292	1246.0	2075.0	0.3002905003474447	0.0	19329.0	6589.874267578125	901.0	0.9500000000000001	-0.7206477732793523	-766.0	-335.0	0.2874493927125506	0.24468573176326658	-49.0	-1.2516348597011915	71.0	-0.4114729237082595	-155.0	
-0.08938208734092937	2022.0	10.109410313526112	1246.0	2098.0	0.2133425781681973	0.0	19969.0	6609.405517578125	903.0	0.9550000000000001	-0.728744939271255	-770.0	-328.0	0.2732793522267207	-0.04587857470561248	-56.0	0.5430749983509766	-45.0	-0.28611443952086346	-136.0	
0.1486616997854588	2019.0	10.104265216641116	1246.0	2078.0	0.25176469241501426	0.0	20609.0	6628.936767578125	903.0	0.9550000000000001	-0.728744939271255	-770.0	-328.0	0.2732793522267207	0.1529285823520416	-50.0	0.028480627327290745	-12.0	-0.3833272851798497	-149.0	
-0.04164950064083536	2023.0	10.120764221630749	1245.0	2094.0	0.20199878942620664	0.0	21249.0	6648.468017578125	903.0	0.9550000000000001	-0.728744939271255	-770.0	-328.0	0.2732793522267207	0.0764642911760208	-56.0	-3.1993309546922144	198.0	-0.3235384990512954	-144.0	
0.08902794741493288	2019.0	10.09327093196948	1247.0	2083.0	0.2509484691978762	0.0	21889.0	6667.999267578125	892.0	0.9275	-0.7327935222672065	-772.0	-334.0	0.28542510121457493	0.18351429882244993	-53.0	-3.572289297888895	222.0	-0.3733015334576369	-151.0	
0.13687159742465793	2011.0	10.115731171037222	1245.0	2079.0	0.3482616526480031	0.0	22529.0	6687.530517578125	892.0	0.9275	-0.7327935222672065	-772.0	-334.0	0.28542510121457493	-0.1529285823520416	-41.0	-2.5418648606507253	156.0	-0.5471310929827541	-129.0	
0.10104740241302526	2015.0	10.104740241302526	1246.0	2082.0	0.2994908210188555	0.0	23169.0	6707.061767578125	892.0	0.9275	-0.7327935222672065	-772.0	-334.0	0.28542510121457493	0.21410001529285827	-37.0	-1.6792303022331816	99.0	-0.5998826820310782	-153.0	
0.07711955572647156	2014.0	10.092907953599537	1247.0	2084.0	0.31106308956901446	0.0	23809.0	6726.593017578125	895.0	0.935	-0.742914979757085	-777.0	-343.0	0.30364372469635625	-0.3058571647040832	-38.0	-0.9049326942761201	50.0	-0.5767952222933828	-119.0	
0.1722202264529722	2017.0	10.079165502440079	1248.0	2076.0	0.2755946689398373	0.0	24449.0	6746.124267578125	895.0	0.935	-0.742914979757085	-777.0	-343.0	0.30364372469635625	-0.030585716470408322	-61.0	-3.0881515543157927	191.0	-0.24570428675690661	-137.0	
0.1249764534359172	2017.0	10.11669296263934	1245.0	2080.0	0.27587278041365204	0.0	25089.0	6765.655517578125	895.0	0.935	-0.742914979757085	-777.0	-343.0	0.30364372469635625	0.36702859764489987	-49.0	-3.4405890205601186	213.0	-0.43336246531684874	-163.0	
0.11307649210182354	2019.0	10.117173019706163	1245.0	2081.0	0.25166699639947887	0.0	25729.0	6785.186767578125	895.0	0.935	-0.742914979757085	-777.0	-343.0	0.30364372469635625	0.3976143141153082	-52.0	-2.796282761193563	171.0	-0.38088595174880846	-165.0	
0.1250983557725924	2017.0	10.128883196306859	1244.0	2080.0	0.2761178041103691	0.0	26369.0	6804.718017578125	895.0	0.935	-0.7469635627530364	-779.0	-347.0	0.3117408906882591	0.12234286588163329	-58.0	-2.8015742920154083	172.0	-0.2888719651082775	-147.0	
0.22006748947171195	2012.0	10.101987042409291	1246.0	2072.0	0.33677053622483066	0.0	27009.0	6824.249267578125	895.0	0.935	-0.7469635627530364	-779.0	-347.0	0.3117408906882591	-0.29056430646887904	-38.0	-3.720214426348334	233.0	-0.6049480396141048	-120.0	
0.16055804811053773	2014.0	10.103423858672821	1246.0	2077.0	0.31210779259432087	0.0	27649.0	6843.780517578125	895.0	0.935	-0.7469635627530364	-779.0	-347.0	0.3117408906882591	0.42820003058571654	-55.0	-3.1671034155315763	195.0	-0.3385607073178139	-167.0	
-0.04177862899553997	2017.0	10.107851386160288	1246.0	2094.0	0.27402839805975643	0.0	28289.0	6863.311767578125	886.0	0.9125	-0.7510121457489879	-781.0	-352.0	0.32186234817813764	-0.29056430646887904	-44.0	-1.8600689948517495	112.0	-0.4942796833503895	-120.0	
-0.12510003638828393	2013.0	10.109043980219226	1246.0	2101.0	0.3214118069513451	0.0	28929.0	6882.843017578125	886.0	0.9125	-0.7510121457489879	-781.0	-352.0	0.32186234817813764	-0.25997858999847073	-40.0	-0.7532674046186033	40.0	-0.5445896020805578	-122.0	
0.0533124070402548	2012.0	10.093145465930242	1247.0	2086.0	0.33492615387093505	0.0	29569.0	6902.374267578125	886.0	0.9125	-0.7510121457489879	-781.0	-352.0	0.32186234817813764	-0.5964214711729623	-45.0	-1.9095122043183685	116.0	-0.4794296317869309	-100.0	
-0.029996956989106774	2018.0	10.095542396327417	1247.0	2093.0	0.26185184221207897	0.0	30209.0	6921.905517578125	886.0	0.9125	-0.7651821862348178	-788.0	-353.0	0.32388663967611336	0.015292858235204161	-48.0	-0.11951474334567551	-2.0	-0.4154962062028292	-140.0	
-0.06545183198169918	2025.0	10.121483468496749	1245.0	2096.0	0.17767876550794934	0.0	30849.0	6941.436767578125	886.0	0.9125	-0.7651821862348178	-788.0	-353.0	0.32388663967611336	0.25997858999847073	-47.0	-0.6982340645846185	35.0	-0.43662788307334355	-156.0	
-0.06533474699037696	2021.0	10.133191967628974	1244.0	2096.0	0.22610687742484437	0.0	31489.0	6960.968017578125	886.0	0.9125	-0.7651821862348178	-788.0	-353.0	0.32388663967611336	-0.382321455880104	-53.0	-2.919048987455571	181.0	-0.3667691303533036	-114.0	
0.04141244570616113	2014.0	10.093625522997066	1247.0	2087.0	0.31072036985676194	0.0	32129.0	6980.499267578125	886.0	0.9125	-0.7651821862348178	-788.0	-353.0	0.32388663967611336	0.5811286129377581	-62.0	-2.9128218697949224	178.0	-0.22860650625357298	-177.0	
0.22019661782641659	2018.0	10.114899877879754	1245.0	2072.0	0.26474092759128093	0.0	32769.0	7000.030517578125	884.0	0.9075	-0.7692307692307693	-790.0	-354.0	0.3259109311740891	0.21410001529285827	-47.0	-4.18782045980351	262.0	-0.47152374702553246	-153.0	
0.029518506053758636	2021.0	10.094707748233008	1247.0	2088.0	0.2262857255673664	0.0	33409.0	7019.561767578125	884.0	0.9075	-0.7692307692307693	-790.0	-354.0	0.3259109311740891	0.030585716470408322	-56.0	-3.0898310195040004	191.0	-0.3224434996994132	-141.0	
0.08927175208828325	2019.0	10.117651399304517	1245.0	2083.0	0.2514385165913105	0.0	34049.0	7039.093017578125	884.0	0.9075	-0.7692307692307693	-790.0	-354.0	0.3259109311740891	0.36702859764489987	-57.0	-2.0421717724619657	122.0	-0.296622423570868	-163.0	
0.1365107077599853	2015.0	10.079642204569959	1248.0	2079.0	0.29934349333767374	0.0	34689.0	7058.624267578125	876.0	0.8875000000000001	-0.7793522267206477	-795.0	-363.0	0.3441295546558705	0.015292858235204161	-67.0	-2.5679629231038694	157.0	-0.14843549849603793	-140.0	
0.02951489304474393	2018.0	10.094346447331537	1247.0	2088.0	0.26242304173249986	0.0	35329.0	7078.155517578125	876.0	0.8875000000000001	-0.7793522267206477	-795.0	-363.0	0.3441295546558705	-0.16822144058724578	-69.0	-3.545295436199189	221.0	-0.12751985631074134	-128.0	
-0.006065497293538363	2022.0	10.107735984931878	1246.0	2091.0	0.21414225749678653	0.0	35969.0	7097.686767578125	876.0	0.8875000000000001	-0.7793522267206477	-795.0	-363.0	0.3441295546558705	-0.33644288117449156	-57.0	-3.106066194686841	193.0	-0.3072613677931167	-117.0	
0.1606883808015806	2021.0	10.116457127777107	1245.0	2077.0	0.22803241190572662	0.0	36609.0	7117.218017578125	876.0	0.8875000000000001	-0.7793522267206477	-795.0	-363.0	0.3441295546558705	-0.3517357394096957	-54.0	-4.550781069530179	287.0	-0.3677419675159248	-116.0	
0.21970057812534816	2011.0	10.065295907772914	1249.0	2072.0	0.3480812371897238	0.0	37249.0	7136.749267578125	869.0	0.87	-0.7732793522267206	-792.0	-380.0	0.3785425101214575	0.1988071570576541	-56.0	-3.2503663124460656	201.0	-0.32404885262883387	-152.0	
0.16092616379323976	2016.0	10.140235426943025	1243.0	2077.0	0.28875131957438327	0.0	37889.0	7156.280517578125	869.0	0.87	-0.7732793522267206	-792.0	-380.0	0.3785425101214575	-0.22939287352806242	-59.0	-4.248827226036961	267.0	-0.2880000107903681	-124.0	
0.14840946475774075	2012.0	10.079041713869312	1248.0	2078.0	0.3355950494068914	0.0	38529.0	7175.811767578125	869.0	0.87	-0.7732793522267206	-792.0	-380.0	0.3785425101214575	0.3058571647040832	-45.0	-1.6226048139119649	95.0	-0.47656055788286683	-159.0	
0.0058356683768935325	2021.0	10.107376361498877	1246.0	2090.0	0.2263022694559152	0.0	39169.0	7195.343017578125	876.0	0.8875000000000001	-0.7753036437246964	-793.0	-389.0	0.3967611336032389	-0.3211500229392874	-63.0	-3.153740557253841	196.0	-0.2156712094700373	-118.0	
0.13675210376065922	2013.0	10.10378180463735	1246.0	2079.0	0.323925084841197	0.0	39809.0	7214.874267578125	876.0	0.8875000000000001	-0.7753036437246964	-793.0	-389.0	0.3967611336032389	-0.33644288117449156	-50.0	-2.8742815260258343	178.0	-0.412354906713381	-117.0	
0.20816993681029478	2016.0	10.102707966743763	1246.0	2073.0	0.2884732081005686	0.0	40449.0	7234.405517578125	876.0	0.8875000000000001	-0.7753036437246964	-793.0	-389.0	0.3967611336032389	0.16822144058724578	-53.0	-2.664215706716174	163.0	-0.3642207975459097	-150.0	
-0.04214072299655083	2020.0	10.071641986059204	1249.0	2094.0	0.23715601080447157	0.0	41089.0	7253.936767578125	866.0	0.8625	-0.7591093117408907	-785.0	-392.0	0.402834008097166	0.04587857470561248	-40.0	-1.0884953949882559	61.0	-0.5479418819842543	-142.0	
0.029634386708742633	2016.0	10.106295813731407	1246.0	2088.0	0.2867596095393059	0.0	41729.0	7273.468017578125	866.0	0.8625	-0.7591093117408907	-785.0	-392.0	0.402834008097166	-0.1529285823520416	-53.0	-2.374518195623547	145.0	-0.3613238224349834	-129.0	
0.2320917618151573	2012.0	10.113938086277635	1245.0	2071.0	0.337129799825632	0.0	42369.0	7292.999267578125	866.0	0.8625	-0.7591093117408907	-785.0	-392.0	0.402834008097166	0.3517357394096957	-44.0	-3.1008345820263443	191.0	-0.5066873392221355	-162.0	
0.20816511946494182	2012.0	10.10222623220847	1246.0	2073.0	0.3366562963207465	0.0	43009.0	7312.530517578125	866.0	0.8625	-0.7591093117408907	-785.0	-392.0	0.402834008097166	-0.015292858235204161	-55.0	-2.564898462852103	157.0	-0.3325386577910192	-138.0	
0.10092790874902655	2017.0	10.092790874902656	1247.0	2082.0	0.2751542532120494	0.0	43649.0	7332.061767578125	856.0	0.8375	-0.7510121457489879	-781.0	-401.0	0.42105263157894735	-0.12234286588163329	-40.0	0.31787747386396176	-30.0	-0.5338781532957322	-131.0	
0.1011777351040681	2022.0	10.117773510406812	1245.0	2082.0	0.21541544033026125	0.0	44289.0	7351.593017578125	856.0	0.8375	-0.7510121457489879	-781.0	-401.0	0.42105263157894735	-0.061171432940816645	-50.0	-2.085494320666795	126.0	-0.4044670346597906	-135.0	
0.07724747974483792	2019.0	10.105700355436174	1246.0	2084.0	0.2510792529905092	0.0	44929.0	7371.124267578125	856.0	0.8375	-0.7510121457489879	-781.0	-401.0	0.42105263157894735	0.22939287352806242	-62.0	-2.252763992845177	136.0	-0.22200592748407555	-154.0	
0.267800076171806	2013.0	10.11334095051393	1245.0	2068.0	0.32542674748284006	0.0	45569.0	7390.655517578125	858.0	0.8425	-0.7753036437246964	-793.0	-405.0	0.4291497975708502	0.42820003058571654	-53.0	-1.6748676076148707	98.0	-0.3543273165548967	-167.0	
0.02951489304474393	2018.0	10.094346447331537	1247.0	2088.0	0.26242304173249986	0.0	46209.0	7410.186767578125	858.0	0.8425	-0.7753036437246964	-793.0	-405.0	0.4291497975708502	0.3211500229392874	-42.0	-2.484075984162674	151.0	-0.5312087205597487	-160.0	
0.16043253276484784	2011.0	10.090872324103833	1247.0	2077.0	0.34800008506273716	0.0	46849.0	7429.718017578125	858.0	0.8425	-0.7753036437246964	-793.0	-405.0	0.4291497975708502	-0.12234286588163329	-36.0	-1.8655697437077037	112.0	-0.6170905601039485	-131.0	
0.06522079872871611	2017.0	10.093508444300184	1247.0	2085.0	0.27481153349979687	0.0	47489.0	7449.249267578125	858.0	0.8425	-0.7753036437246964	-793.0	-405.0	0.4291497975708502	0.0764642911760208	-58.0	-1.7999931296322702	107.0	-0.27885615348444615	-144.0	
0.06534029239271483	2015.0	10.105457810700054	1246.0	2085.0	0.29914810130660296	0.0	48129.0	7468.780517578125	852.0	0.8275	-0.7307692307692307	-771.0	-423.0	0.46558704453441296	-0.1988071570576541	-50.0	-1.5570452745239796	92.0	-0.39918254419836247	-126.0	
0.11319478142948401	2016.0	10.129001952472212	1244.0	2081.0	0.28804933626132945	0.0	48769.0	7488.311767578125	852.0	0.8275	-0.7307692307692307	-771.0	-423.0	0.46558704453441296	0.25997858999847073	-41.0	-0.005181501006075754	-10.0	-0.5217642593863075	-156.0	
0.1129497724197954	2015.0	10.10450105150335	1246.0	2081.0	0.29960506092293965	0.0	49409.0	7507.843017578125	852.0	0.8275	-0.7307692307692307	-771.0	-423.0	0.46558704453441296	0.13763572411683744	-47.0	-0.631817996017062	31.0	-0.43596372238766795	-148.0	
0.1128302787557967	2017.0	10.092551685103478	1247.0	2081.0	0.27526849311613355	0.0	50049.0	7527.374267578125	846.0	0.8125	-0.7469635627530364	-779.0	-417.0	0.4534412955465587	0.0764642911760208	-51.0	-0.38389372831593316	15.0	-0.3721065450781571	-144.0	
0.14866049544912052	2018.0	10.104144783007293	1246.0	2078.0	0.26381046447005874	0.0	50689.0	7546.905517578125	846.0	0.8125	-0.7469635627530364	-779.0	-417.0	0.4534412955465587	0.21410001529285827	-51.0	-1.7429011583988505	103.0	-0.38569661937898625	-153.0	
-0.10129168336572891	2016.0	10.108926901522345	1246.0	2099.0	0.28550297059438	0.0	51329.0	7566.436767578125	846.0	0.8125	-0.7469635627530364	-779.0	-417.0	0.4534412955465587	0.3211500229392874	-49.0	-0.3933733199541375	15.0	-0.4028903083107889	-160.0	
0.07736456473616017	2015.0	10.117408854568398	1245.0	2084.0	0.29950736490740426	0.0	51969.0	7585.968017578125	848.0	0.8175	-0.7206477732793523	-766.0	-433.0	0.4858299595141701	0.030585716470408322	-41.0	-1.9954991093264254	120.0	-0.541667435469511	-141.0	
0.4346818782852913	2017.0	10.134854495195794	1243.0	2054.0	0.27933306531327484	0.0	52609.0	7605.499267578125	848.0	0.8175	-0.7206477732793523	-766.0	-433.0	0.4858299595141701	0.41290717235051233	-60.0	-0.9216751310346287	49.0	-0.2393840061822199	-166.0	
0.2914853225213475	2015.0	10.100913204515706	1246.0	2066.0	0.30131865948420233	0.0	53249.0	7625.030517578125	848.0	0.8175	-0.7206477732793523	-766.0	-433.0	0.4858299595141701	0.18351429882244993	-56.0	-2.8806175997530397	177.0	-0.32035136550190363	-151.0	
0.30350718619211636	2013.0	10.112623381116402	1245.0	2065.0	0.3257694671950926	0.0	53889.0	7644.561767578125	848.0	0.8175	-0.7206477732793523	-766.0	-433.0	0.4858299595141701	0.42820003058571654	-38.0	0.2500226865028055	-27.0	-0.5652456684855935	-167.0	
-0.06582235633707771	2021.0	10.084431032958898	1248.0	2096.0	0.22512678263797586	0.0	54529.0	7664.093017578125	844.0	0.8075	-0.708502024291498	-760.0	-443.0	0.5060728744939271	-0.12234286588163329	-44.0	-2.2820763716268093	139.0	-0.49849975711814015	-131.0	
0.07711955572647156	2014.0	10.092907953599537	1247.0	2084.0	0.31106308956901446	0.0	55169.0	7683.624267578125	844.0	0.8075	-0.708502024291498	-760.0	-443.0	0.5060728744939271	0.3517357394096957	-42.0	0.575462161436554	-48.0	-0.5006133391037564	-162.0	
0.10104499374034878	2013.0	10.104499374034878	1246.0	2082.0	0.32358236512894445	0.0	55809.0	7703.155517578125	844.0	0.8075	-0.708502024291498	-760.0	-443.0	0.5060728744939271	0.18351429882244993	-32.0	0.12230331676671469	-18.0	-0.6585897641317038	-151.0	
0.24387463815792873	2014.0	10.101749530078587	1246.0	2070.0	0.3129074719229101	0.0	56449.0	7722.686767578125	834.0	0.7825	-0.6983805668016194	-755.0	-450.0	0.520242914979757	0.3517357394096957	-38.0	-0.7312845397538931	37.0	-0.5750587407481604	-162.0	
0.1724604181173079	2014.0	10.103184668873645	1246.0	2076.0	0.312222032498405	0.0	57089.0	7742.218017578125	834.0	0.7825	-0.6983805668016194	-755.0	-450.0	0.520242914979757	0.6423000458785748	-56.0	0.1002714139967967	-18.0	-0.29054247536440525	-181.0	
0.07749008008185006	2018.0	10.129960389137388	1244.0	2084.0	0.2636150724389879	0.0	57729.0	7761.749267578125	834.0	0.7825	-0.6983805668016194	-755.0	-450.0	0.520242914979757	0.29056430646887904	-56.0	-0.4701275741499051	20.0	-0.2962464652458723	-158.0	
-0.005822896956526227	2021.0	10.131996018633092	1244.0	2091.0	0.22667807694526526	0.0	58369.0	7781.280517578125	834.0	0.7825	-0.6983805668016194	-755.0	-450.0	0.520242914979757	0.565835754702554	-49.0	-0.18782981918772743	1.0	-0.40083487330312484	-176.0	
0.1486616997854588	2019.0	10.104265216641116	1246.0	2078.0	0.25176469241501426	0.0	59009.0	7800.811767578125	838.0	0.7925	-0.6983805668016194	-755.0	-453.0	0.5263157894736842	0.24468573176326658	-51.0	0.3476522059369256	-33.0	-0.3647910857356285	-155.0	
0.2556563101643619	2015.0	10.089440540245716	1247.0	2069.0	0.3007309160752326	0.0	59649.0	7820.343017578125	838.0	0.7925	-0.6983805668016194	-755.0	-453.0	0.5263157894736842	-0.2752714482336749	-47.0	-1.1228668174388687	64.0	-0.4408742106018861	-121.0	
0.1843651967967545	2016.0	10.103186346342115	1246.0	2075.0	0.2882447282924002	0.0	60289.0	7839.874267578125	838.0	0.7925	-0.6983805668016194	-755.0	-453.0	0.5263157894736842	0.18351429882244993	-47.0	-0.44908442574487023	19.0	-0.43413638668494603	-151.0	
0.1724604181173079	2014.0	10.103184668873645	1246.0	2076.0	0.312222032498405	0.0	60929.0	7859.405517578125	843.0	0.805	-0.6902834008097166	-751.0	-461.0	0.5425101214574899	0.04587857470561248	-56.0	-0.2450111721325588	6.0	-0.29399530122569884	-142.0	
0.01761372737431202	2019.0	10.094706070764536	1247.0	2089.0	0.25026302977337117	0.0	61569.0	7878.936767578125	843.0	0.805	-0.6902834008097166	-751.0	-461.0	0.5425101214574899	-0.0764642911760208	-45.0	-0.2691916440172852	8.0	-0.46302642618392	-134.0	
0.20816993681029478	2016.0	10.102707966743763	1246.0	2073.0	0.2884732081005686	0.0	62209.0	7898.468017578125	843.0	0.805	-0.6902834008097166	-751.0	-461.0	0.5425101214574899	0.015292858235204161	-48.0	0.08043449723249708	-15.0	-0.41349671379704744	-140.0	
0.029637999717757352	2019.0	10.106657114632878	1246.0	2088.0	0.2506222933741725	0.0	62849.0	7917.999267578125	836.0	0.7875	-0.7044534412955465	-758.0	-458.0	0.5364372469635628	0.18351429882244993	-41.0	0.24396813783367238	-26.0	-0.5192727629979101	-151.0	
0.14865808677644407	2016.0	10.103903915739645	1246.0	2078.0	0.2879020085801477	0.0	63489.0	7937.530517578125	836.0	0.7875	-0.7044534412955465	-758.0	-458.0	0.5364372469635628	0.0	-41.0	0.11288157847942322	-17.0	-0.5205836285914526	-139.0	
0.053317224385607744	2016.0	10.093627200465537	1247.0	2086.0	0.28674306565075713	0.0	64129.0	7957.061767578125	836.0	0.7875	-0.7044534412955465	-758.0	-458.0	0.5364372469635628	0.13763572411683744	-49.0	0.6906162749743545	-55.0	-0.392050412361504	-148.0	
-0.006071518975229548	2017.0	10.10713381676276	1246.0	2091.0	0.27437111777200895	0.0	64769.0	7976.593017578125	836.0	0.7875	-0.7044534412955465	-758.0	-458.0	0.5364372469635628	0.3058571647040832	-50.0	0.23769404707825134	-26.0	-0.3812351509823401	-159.0	
0.053565846404311064	2020.0	10.118489402335868	1245.0	2086.0	0.2390500248240135	0.0	65409.0	7996.124267578125	835.0	0.785	-0.6842105263157895	-748.0	-466.0	0.5526315789473685	0.25997858999847073	-45.0	-0.4056937001369485	16.0	-0.4643914467451167	-156.0	
0.005834464040555307	2020.0	10.107255927865054	1246.0	2090.0	0.23834804151095967	0.0	513.0	8015.655517578125	835.0	0.785	-0.6842105263157895	-748.0	-466.0	0.5526315789473685	0.3976143141153082	-49.0	-0.9501371750679973	51.0	-0.40845794686192755	-165.0	
0.08926934341560679	2017.0	10.11741053203687	1245.0	2083.0	0.2755300607013995	0.0	1153.0	8035.186767578125	835.0	0.785	-0.6842105263157895	-748.0	-466.0	0.5526315789473685	0.474078605291329	-53.0	-1.092235556186334	60.0	-0.3485009960406113	-170.0	
0.08914744107893159	2017.0	10.10522029836935	1246.0	2083.0	0.2752850370046823	0.0	1793.0	8054.718017578125	840.0	0.7975	-0.6781376518218624	-745.0	-468.0	0.5566801619433198	0.565835754702554	-48.0	-1.6642246278098316	97.0	-0.4309433050474708	-176.0	
0.16068115478355116	2015.0	10.115734525974164	1245.0	2077.0	0.3003070442359935	0.0	2433.0	8074.249267578125	840.0	0.7975	-0.6781376518218624	-745.0	-468.0	0.5566801619433198	0.29056430646887904	-49.0	-0.6997642299000657	35.0	-0.40595421741024823	-158.0	
0.16068476779256588	2018.0	10.116095826875634	1245.0	2077.0	0.26416972807086003	0.0	3073.0	8093.780517578125	840.0	0.7975	-0.6781376518218624	-745.0	-468.0	0.5566801619433198	-0.015292858235204161	-46.0	-1.0562079376662687	59.0	-0.455552105462285	-138.0	
0.017738038383663668	2021.0	10.107137171699701	1246.0	2089.0	0.22641650935999935	0.0	3713.0	8113.311767578125	840.0	0.7975	-0.6781376518218624	-745.0	-468.0	0.5566801619433198	0.015292858235204161	-37.0	-0.7330554514639482	38.0	-0.590420933523386	-140.0	
-0.04201641198719917	2022.0	10.084073086994369	1248.0	2094.0	0.21330949039109975	0.0	4353.0	8132.843017578125	837.0	0.79	-0.6619433198380567	-737.0	-470.0	0.5607287449392713	0.22939287352806242	-47.0	0.14892833649737228	-20.0	-0.42815625906252364	-154.0	
0.1367545124333357	2015.0	10.104022671904996	1246.0	2079.0	0.299833540731108	0.0	4993.0	8152.374267578125	837.0	0.79	-0.6619433198380567	-737.0	-470.0	0.5607287449392713	0.030585716470408322	-35.0	-0.44112674018037	19.0	-0.6181906137268	-141.0	
0.18436278812407803	2014.0	10.102945479074469	1246.0	2075.0	0.3123362724024892	0.0	5633.0	8171.905517578125	837.0	0.79	-0.6619433198380567	-737.0	-470.0	0.5607287449392713	0.1988071570576541	-42.0	-0.1259340043529853	-2.0	-0.5076273007616519	-152.0	
0.18448348612441498	2013.0	10.115015279108164	1245.0	2075.0	0.3246270681542508	0.0	6273.0	8191.436767578125	836.0	0.7875	-0.6578947368421053	-735.0	-469.0	0.5587044534412956	0.382321455880104	-50.0	-1.1342474811620042	63.0	-0.39495456626474273	-164.0	
0.005950344695539317	2015.0	10.118843993363456	1245.0	2090.0	0.2988219254828992	0.0	6913.0	8210.968017578125	836.0	0.7875	-0.6578947368421053	-735.0	-469.0	0.5587044534412956	-0.10705000764642914	-31.0	-0.32734316803307756	12.0	-0.6784307126378266	-132.0	
0.053318428721945976	2017.0	10.09374763409936	1247.0	2086.0	0.27469729359571265	0.0	7553.0	8230.499267578125	836.0	0.7875	-0.6578947368421053	-735.0	-469.0	0.5587044534412956	0.1988071570576541	-33.0	0.044634680040463115	-13.0	-0.6440219668408415	-152.0	
0.20829304348330818	2017.0	10.115018634045107	1245.0	2073.0	0.27667245974224125	0.0	8193.0	8250.030517578125	842.0	0.8025	-0.6518218623481782	-732.0	-462.0	0.5445344129554656	0.3517357394096957	-61.0	1.0493490362824214	-79.0	-0.20432928085092447	-162.0	
0.0654646034020665	2017.0	10.117888911635221	1245.0	2085.0	0.27530158089323115	0.0	8833.0	8269.561767578125	842.0	0.8025	-0.6518218623481782	-732.0	-462.0	0.5445344129554656	0.16822144058724578	-56.0	-0.8189906975523995	43.0	-0.2997350964798972	-150.0	
0.07724507107216144	2017.0	10.105459488168526	1246.0	2084.0	0.27517079710059816	0.0	9473.0	8289.093017578125	842.0	0.8025	-0.6518218623481782	-732.0	-462.0	0.5445344129554656	0.0	-40.0	-1.209706122005625	69.0	-0.549153989254428	-139.0	
0.20792854080962087	2018.0	10.078568366676373	1248.0	2073.0	0.26389161659704535	0.0	10113.0	8308.624267578125	842.0	0.8025	-0.6518218623481782	-732.0	-462.0	0.5445344129554656	0.13763572411683744	-46.0	-0.8777559395427194	47.0	-0.45376758548104945	-148.0	
0.10105101542203997	2018.0	10.105101542203997	1246.0	2082.0	0.26335350485372205	0.0	10753.0	8328.155517578125	839.0	0.795	-0.6497975708502024	-731.0	-464.0	0.548582995951417	0.0	-38.0	-0.6556936737249603	33.0	-0.5743028320878711	-139.0	
0.041417263051514074	2018.0	10.094107257532361	1247.0	2087.0	0.262537281636584	0.0	11393.0	8347.686767578125	839.0	0.795	-0.6497975708502024	-731.0	-464.0	0.548582995951417	0.41290717235051233	-67.0	-0.5843734995885289	27.0	-0.12859960426088454	-166.0	
0.06522200306505435	2018.0	10.093628877934007	1247.0	2085.0	0.2627657614447524	0.0	12033.0	8367.218017578125	839.0	0.795	-0.6497975708502024	-731.0	-464.0	0.548582995951417	0.3211500229392874	-57.0	-1.1021134533336494	61.0	-0.2872218403795848	-160.0	
0.22006989814438843	2014.0	10.10222790967694	1246.0	2072.0	0.3126789921147417	0.0	12673.0	8386.749267578125	831.0	0.775	-0.6396761133603239	-726.0	-450.0	0.520242914979757	0.565835754702554	-48.0	-1.1258997493301361	62.0	-0.42556005626267385	-176.0	
0.22006628513537374	2011.0	10.101866608775468	1246.0	2072.0	0.3488163082798752	0.0	13313.0	8406.280517578125	831.0	0.775	-0.6396761133603239	-726.0	-450.0	0.520242914979757	-0.3058571647040832	-50.0	-0.5837789211118856	29.0	-0.3894498806642415	-119.0	
-0.029751947979418186	2019.0	10.120043297296279	1245.0	2093.0	0.25029611755046877	0.0	13953.0	8425.811767578125	831.0	0.775	-0.6396761133603239	-726.0	-450.0	0.520242914979757	0.3976143141153082	-51.0	-0.7966369259182052	41.0	-0.3762339770541798	-165.0	
0.017736834047325442	2020.0	10.107016738065878	1246.0	2089.0	0.23846228141504383	0.0	14593.0	8445.343017578125	840.0	0.7975	-0.631578947368421	-722.0	-473.0	0.5668016194331984	0.3517357394096957	-48.0	-1.101955894219146	61.0	-0.42532061771156393	-162.0	
0.17246282678998434	2016.0	10.103425536141291	1246.0	2076.0	0.28813048838831606	0.0	15233.0	8464.874267578125	840.0	0.7975	-0.631578947368421	-722.0	-473.0	0.5668016194331984	0.6728857623489831	-45.0	-2.2217515007709796	133.0	-0.482552024751457	-183.0	
0.1844870991334297	2016.0	10.115376580009634	1245.0	2075.0	0.28848975198911736	0.0	15873.0	8484.405517578125	840.0	0.7975	-0.631578947368421	-722.0	-473.0	0.5668016194331984	0.22939287352806242	-42.0	-2.080507584021778	125.0	-0.5271730365583397	-154.0	
0.1728249207909952	2013.0	10.139634936242377	1243.0	2076.0	0.32500287564360086	0.0	16513.0	8503.936767578125	840.0	0.7975	-0.631578947368421	-722.0	-473.0	0.5668016194331984	0.13763572411683744	-41.0	-1.4614558029953724	85.0	-0.5363270024062006	-148.0	
0.16067874611087468	2013.0	10.115493658706516	1245.0	2077.0	0.3243985883460825	0.0	17153.0	8523.468017578125	840.0	0.7975	-0.6174089068825911	-715.0	-470.0	0.5607287449392713	0.030585716470408322	-46.0	-1.1503271620407776	65.0	-0.45649329770603003	-141.0	
0.12473385309890507	2018.0	10.092432928938127	1247.0	2080.0	0.26333696096517323	0.0	17793.0	8542.999267578125	840.0	0.7975	-0.6174089068825911	-715.0	-470.0	0.5607287449392713	-0.1988071570576541	-46.0	-1.6487158214316855	98.0	-0.46147718429993917	-126.0	
0.11283268742847316	2019.0	10.092792552371126	1247.0	2081.0	0.2511769490060446	0.0	18433.0	8562.530517578125	840.0	0.7975	-0.6174089068825911	-715.0	-470.0	0.5607287449392713	0.015292858235204161	-45.0	0.4961739776834435	-42.0	-0.4553727699669127	-140.0	
0.16080667012924105	2018.0	10.128286060543154	1244.0	2077.0	0.26441475176757717	0.0	19073.0	8582.061767578125	833.0	0.78	-0.6133603238866396	-713.0	-469.0	0.5587044534412956	0.5046643217617374	-51.0	-0.10878651145009624	-4.0	-0.36935547290949866	-172.0	
0.13675330809699746	2014.0	10.103902238271173	1246.0	2079.0	0.3118793127861525	0.0	19713.0	8601.593017578125	833.0	0.78	-0.6133603238866396	-713.0	-469.0	0.5587044534412956	0.1988071570576541	-58.0	-1.589556403553126	93.0	-0.27675178622365465	-152.0	
0.13675089942432098	2012.0	10.103661371003525	1246.0	2079.0	0.33597085689624145	0.0	20353.0	8621.124267578125	833.0	0.78	-0.6133603238866396	-713.0	-469.0	0.5587044534412956	0.030585716470408322	-50.0	-1.0894180367604829	61.0	-0.3945062718207275	-141.0	
0.13663020142398402	2013.0	10.091591570969833	1247.0	2079.0	0.32368006114447984	0.0	20993.0	8640.655517578125	833.0	0.78	-0.6133603238866396	-713.0	-469.0	0.5587044534412956	0.18351429882244993	-49.0	-0.7108633685651289	36.0	-0.40606520879689884	-151.0	
0.19626756680352464	2016.0	10.102947156542939	1246.0	2074.0	0.28835896819648443	0.0	21633.0	8660.186767578125	837.0	0.79	-0.6174089068825911	-715.0	-463.0	0.5465587044534413	0.12234286588163329	-43.0	-0.9997296844073768	55.0	-0.5010207739040707	-147.0	
0.0771243730718245	2018.0	10.093389688134831	1247.0	2084.0	0.26288000134883655	0.0	22273.0	8679.718017578125	837.0	0.79	-0.6174089068825911	-715.0	-463.0	0.5465587044534413	-0.0764642911760208	-46.0	0.7150204185662403	-56.0	-0.43783982189995985	-134.0	
0.2320941704878338	2014.0	10.114178953545283	1245.0	2071.0	0.31303825571554306	0.0	22913.0	8699.249267578125	837.0	0.79	-0.6174089068825911	-715.0	-463.0	0.5465587044534413	0.21410001529285827	-40.0	-0.41847230399021934	17.0	-0.5412416510742739	-153.0	
0.07712678174450097	2020.0	10.093630555402479	1247.0	2084.0	0.2387884572387476	0.0	23553.0	8718.780517578125	840.0	0.7975	-0.611336032388664	-712.0	-453.0	0.5263157894736842	0.18351429882244993	-53.0	-0.8806649054904179	47.0	-0.3463852895336521	-151.0	
0.11295338542881012	2018.0	10.10486235240482	1246.0	2081.0	0.2634677447578062	0.0	24193.0	8738.311767578125	840.0	0.7975	-0.611336032388664	-712.0	-453.0	0.5263157894736842	0.13763572411683744	-57.0	-0.1873116773559189	2.0	-0.2780738226198075	-148.0	
0.13699470409767134	2012.0	10.128041838338564	1244.0	2079.0	0.3364609042896757	0.0	24833.0	8757.843017578125	840.0	0.7975	-0.611336032388664	-712.0	-453.0	0.5263157894736842	-0.10705000764642914	-35.0	-0.23567262112537163	6.0	-0.6161360725362499	-132.0	
0.01761493171065026	2020.0	10.09482650439836	1247.0	2089.0	0.2382172577183267	0.0	25473.0	8777.374267578125	838.0	0.7925	-0.6012145748987854	-707.0	-459.0	0.5384615384615384	0.41290717235051233	-53.0	0.20219076482130222	-24.0	-0.3355567328305349	-166.0	
0.06546701207474298	2019.0	10.118129778902869	1245.0	2085.0	0.25121003678314213	0.0	26113.0	8796.905517578125	838.0	0.7925	-0.6012145748987854	-707.0	-459.0	0.5384615384615384	0.1529285823520416	-54.0	-1.3563970638807394	78.0	-0.3357981274594304	-149.0	
0.11282787008312022	2015.0	10.092310817835832	1247.0	2081.0	0.2993600372262225	0.0	26753.0	8816.436767578125	838.0	0.7925	-0.6012145748987854	-707.0	-459.0	0.5384615384615384	0.1988071570576541	-56.0	-1.2508739066643393	71.0	-0.3040539285710166	-152.0	
-0.017969071636646752	2021.0	10.10785474109723	1246.0	2092.0	0.22607378964774683	0.0	27393.0	8835.968017578125	838.0	0.7925	-0.6012145748987854	-707.0	-459.0	0.5384615384615384	0.4434928888209207	-51.0	-2.2134972802713944	133.0	-0.3904025805977117	-168.0	
0.04129897372385359	2021.0	10.082278324766312	1248.0	2087.0	0.22615494177473347	0.0	28033.0	8855.499267578125	839.0	0.795	-0.5991902834008097	-706.0	-461.0	0.5425101214574899	0.474078605291329	-63.0	-2.0935160540135156	125.0	-0.205068964437634	-170.0	
0.08902915175127112	2020.0	10.093391365603303	1247.0	2083.0	0.23890269714283174	0.0	28673.0	8875.030517578125	839.0	0.795	-0.5991902834008097	-706.0	-461.0	0.5425101214574899	0.3517357394096957	-49.0	-1.7788605995158235	105.0	-0.4167451811064058	-162.0	
-0.029747130634065228	2023.0	10.120525031831573	1245.0	2093.0	0.20211302933029082	0.0	29313.0	8894.561767578125	839.0	0.795	-0.5991902834008097	-706.0	-461.0	0.5425101214574899	0.6270071876433706	-49.0	-1.1592612131075462	64.0	-0.41054918724232303	-180.0	
0.1843651967967545	2016.0	10.103186346342115	1246.0	2075.0	0.2882447282924002	0.0	29953.0	8914.093017578125	849.0	0.8200000000000001	-0.582995951417004	-698.0	-462.0	0.5445344129554656	0.42820003058571654	-45.0	-1.442929509460232	83.0	-0.4747638048383495	-167.0	
0.1729468231276704	2013.0	10.151825169909896	1242.0	2076.0	0.325247899340318	0.0	30593.0	8933.624267578125	849.0	0.8200000000000001	-0.582995951417004	-698.0	-462.0	0.5445344129554656	-0.3211500229392874	-39.0	-1.442799349085356	85.0	-0.5668294051833502	-118.0	
0.16056166111955245	2017.0	10.103785159574292	1246.0	2077.0	0.2759704764291874	0.0	31233.0	8953.155517578125	849.0	0.8200000000000001	-0.582995951417004	-698.0	-462.0	0.5445344129554656	0.3211500229392874	-37.0	-1.3758976581077123	79.0	-0.5968493555898235	-160.0	
-0.065702862673079	2019.0	10.09638039935877	1247.0	2096.0	0.24946335044478193	0.0	31873.0	8972.686767578125	849.0	0.8200000000000001	-0.582995951417004	-698.0	-462.0	0.5445344129554656	0.5046643217617374	-41.0	-2.075983200668092	124.0	-0.5424722763829277	-172.0	
0.2559001148377123	2015.0	10.113821007580754	1245.0	2069.0	0.3012209634686669	0.0	32513.0	8992.218017578125	842.0	0.8025	-0.5748987854251012	-694.0	-461.0	0.5425101214574899	-0.09175714941122497	-50.0	-1.4229004493492716	83.0	-0.3978410959466154	-133.0	
0.2318551831598364	2018.0	10.09028022074554	1247.0	2071.0	0.2643651201019308	0.0	33153.0	9011.749267578125	842.0	0.8025	-0.5748987854251012	-694.0	-461.0	0.5425101214574899	0.5811286129377581	-51.0	-1.6652965694548192	97.0	-0.38492057348954595	-177.0	
0.08914744107893159	2017.0	10.10522029836935	1246.0	2083.0	0.2752850370046823	0.0	33793.0	9031.280517578125	842.0	0.8025	-0.5748987854251012	-694.0	-461.0	0.5425101214574899	0.29056430646887904	-47.0	-0.8071223466087409	42.0	-0.43771676589358477	-158.0	
0.029519710390096876	2022.0	10.09482818186683	1247.0	2088.0	0.21423995351232192	0.0	34433.0	9050.811767578125	841.0	0.8	-0.5748987854251012	-694.0	-445.0	0.5101214574898786	0.5352500382321457	-56.0	-0.5568175788439012	25.0	-0.29711336529281224	-174.0	
0.06534149672905307	2016.0	10.105578244333879	1246.0	2085.0	0.2871023292515585	0.0	35073.0	9070.343017578125	841.0	0.8	-0.5748987854251012	-694.0	-445.0	0.5101214574898786	0.474078605291329	-51.0	-0.9688830106894255	52.0	-0.37795643790189204	-170.0	
0.25589891050137403	2014.0	10.11370057394693	1245.0	2069.0	0.31326673552371137	0.0	35713.0	9089.874267578125	841.0	0.8	-0.5748987854251012	-694.0	-445.0	0.5101214574898786	0.24468573176326658	-43.0	-0.42015589879929854	17.0	-0.49522503604799	-155.0	
0.17258232045398308	2014.0	10.115374902541165	1245.0	2076.0	0.31246705619512216	0.0	36353.0	9109.405517578125	850.0	0.8225	-0.5688259109311741	-691.0	-441.0	0.5020242914979757	-0.36702859764489987	-54.0	-0.4742810507341069	22.0	-0.3269769673279641	-115.0	
0.18447987311540026	2010.0	10.114653978206693	1245.0	2075.0	0.3607643843193843	0.0	36993.0	9128.936767578125	850.0	0.8225	-0.5688259109311741	-691.0	-441.0	0.5020242914979757	-0.3976143141153082	-28.0	0.7306268658975412	-56.0	-0.7138844632728952	-113.0	
0.2796988331695614	2010.0	10.112740459813283	1245.0	2067.0	0.36167830355205766	0.0	37633.0	9148.468017578125	850.0	0.8225	-0.5688259109311741	-691.0	-441.0	0.5020242914979757	0.2752714482336749	-54.0	-0.053929870028498784	-7.0	-0.322773455520908	-157.0	
0.18424088578740283	2014.0	10.090755245406951	1247.0	2075.0	0.31209124870577204	0.0	38273.0	9167.999267578125	850.0	0.8225	-0.5688259109311741	-691.0	-441.0	0.5020242914979757	0.5199571799969415	-40.0	0.7843707870106866	-62.0	-0.5292132201642649	-173.0	
0.1727066314633347	2016.0	10.12780600347633	1244.0	2076.0	0.2886205357817503	0.0	38913.0	9187.530517578125	847.0	0.8150000000000001	-0.5546558704453441	-684.0	-431.0	0.4817813765182186	0.3058571647040832	-50.0	0.11464836056860668	-18.0	-0.3824656078474366	-159.0	
0.1250983557725924	2017.0	10.128883196306859	1244.0	2080.0	0.2761178041103691	0.0	39553.0	9207.061767578125	847.0	0.8150000000000001	-0.5546558704453441	-684.0	-431.0	0.4817813765182186	0.1529285823520416	-36.0	-0.1385591787126243	-1.0	-0.5998204544539977	-149.0	
-0.0060727233115677876	2016.0	10.107013383128935	1246.0	2091.0	0.2864168898270534	0.0	40193.0	9226.593017578125	847.0	0.8150000000000001	-0.5546558704453441	-684.0	-431.0	0.4817813765182186	0.382321455880104	-29.0	0.7761826791037576	-61.0	-0.6980844214827081	-164.0	
0.07761077808218701	2017.0	10.142030189171082	1243.0	2084.0	0.2759058681907496	0.0	40833.0	9246.124267578125	843.0	0.805	-0.5465587044534413	-680.0	-434.0	0.48785425101214575	0.0	-34.0	0.8983718364338312	-68.0	-0.6201401116187829	-139.0	
0.17270783579967297	2017.0	10.127926437110155	1244.0	2076.0	0.27657476372670586	0.0	41473.0	9265.655517578125	843.0	0.805	-0.5465587044534413	-680.0	-434.0	0.48785425101214575	0.16822144058724578	-48.0	0.9202570603453866	-70.0	-0.4050984881659186	-150.0	
0.11283509610114964	2021.0	10.093033419638774	1247.0	2081.0	0.22708540489595563	0.0	42113.0	9285.186767578125	843.0	0.805	-0.5465587044534413	-680.0	-434.0	0.48785425101214575	0.565835754702554	-53.0	0.07302854667073999	-16.0	-0.3368483550120406	-176.0	
0.2560220171743875	2015.0	10.126011241248273	1244.0	2069.0	0.30146598716538403	0.0	42753.0	9304.718017578125	843.0	0.805	-0.5465587044534413	-680.0	-434.0	0.48785425101214575	-0.2752714482336749	-42.0	-0.691439767186953	36.0	-0.5132823583899915	-121.0	
0.19626877113986285	2017.0	10.103067590176764	1246.0	2074.0	0.2763131961414399	0.0	43393.0	9324.249267578125	850.0	0.8225	-0.5384615384615384	-676.0	-436.0	0.49190283400809715	0.565835754702554	-29.0	-0.12323838606026737	-3.0	-0.7070786321343484	-176.0	
0.10104860674936349	2016.0	10.104860674936349	1246.0	2082.0	0.287445048963811	0.0	44033.0	9343.780517578125	850.0	0.8225	-0.5384615384615384	-676.0	-436.0	0.49190283400809715	0.5046643217617374	-54.0	-0.38609959457769244	14.0	-0.32609515276639994	-172.0	
-0.029994548316430322	2020.0	10.095783263595065	1247.0	2093.0	0.23776029810199	0.0	44673.0	9363.311767578125	850.0	0.8225	-0.5384615384615384	-676.0	-436.0	0.49190283400809715	0.29056430646887904	-59.0	-0.10145080310186673	-4.0	-0.24652624656101715	-158.0	
0.10117291775871516	2018.0	10.117291775871516	1245.0	2082.0	0.2635985285504392	0.0	45313.0	9382.843017578125	849.0	0.8200000000000001	-0.5303643724696356	-672.0	-427.0	0.4736842105263158	0.36702859764489987	-45.0	0.15911102782151584	-21.0	-0.458743399465532	-163.0	
0.13675692110601215	2017.0	10.104263539172644	1246.0	2079.0	0.27574199662101906	0.0	45953.0	9402.374267578125	849.0	0.8200000000000001	-0.5303643724696356	-672.0	-427.0	0.4736842105263158	0.0764642911760208	-51.0	-0.8453150527271006	45.0	-0.37672075832226876	-144.0	
0.07736938208151312	2019.0	10.117890589103693	1245.0	2084.0	0.25132427668722634	0.0	46593.0	9421.905517578125	849.0	0.8200000000000001	-0.5303643724696356	-672.0	-427.0	0.4736842105263158	0.3058571647040832	-46.0	-1.914991748866003	114.0	-0.4641399435742823	-159.0	
0.19638706046752336	2014.0	10.11489652294281	1245.0	2074.0	0.3126955360032905	0.0	47233.0	9441.436767578125	845.0	0.81	-0.5303643724696356	-672.0	-424.0	0.4676113360323887	0.18351429882244993	-49.0	-1.3414725119270579	77.0	-0.4123713002305181	-151.0	
0.12485334676290377	2016.0	10.104382295337997	1246.0	2080.0	0.2876735287719794	0.0	47873.0	9460.968017578125	845.0	0.81	-0.5303643724696356	-672.0	-424.0	0.4676113360323887	0.04587857470561248	-52.0	-1.1518593921666607	65.0	-0.3644417180585394	-142.0	
0.041540369724527494	2019.0	10.106417924833702	1246.0	2087.0	0.2507365332782567	0.0	48513.0	9480.499267578125	845.0	0.81	-0.5303643724696356	-672.0	-424.0	0.4676113360323887	0.24468573176326658	-43.0	-0.34325234473077065	12.0	-0.4944560005073047	-155.0	
0.08914623674259335	2016.0	10.105099864735525	1246.0	2083.0	0.28733080905972685	0.0	49153.0	9500.030517578125	845.0	0.81	-0.5303643724696356	-672.0	-424.0	0.4676113360323887	0.24468573176326658	-40.0	0.287817087112054	-29.0	-0.5341787571632512	-155.0	
0.10104981108570173	2017.0	10.104981108570174	1246.0	2082.0	0.27539927690876653	0.0	49793.0	9519.561767578125	851.0	0.8250000000000001	-0.5263157894736842	-670.0	-428.0	0.4757085020242915	0.10705000764642914	-45.0	-0.47648072256455887	21.0	-0.4650993169693927	-146.0	
0.1844883034697679	2017.0	10.11549701364346	1245.0	2075.0	0.2764439799340729	0.0	50433.0	9539.093017578125	851.0	0.8250000000000001	-0.5263157894736842	-670.0	-428.0	0.4757085020242915	0.5199571799969415	-54.0	-0.8019904397118349	41.0	-0.3302540612177414	-173.0	
0.05332204173096069	2020.0	10.09410893500083	1247.0	2086.0	0.23855997743057922	0.0	51073.0	9558.624267578125	851.0	0.8250000000000001	-0.5263157894736842	-670.0	-428.0	0.4757085020242915	0.3976143141153082	-53.0	-1.5044564823359259	87.0	-0.3526232053021072	-165.0	
0.1605604567832142	2016.0	10.103664725940469	1246.0	2077.0	0.2880162484842319	0.0	51713.0	9578.155517578125	850.0	0.8225	-0.5182186234817814	-666.0	-432.0	0.48380566801619435	0.015292858235204161	-55.0	-1.3971877473386622	81.0	-0.32086155063588473	-140.0	
-0.18472415406810394	2021.0	10.09901316461818	1247.0	2106.0	0.2242294072938512	0.0	52353.0	9597.686767578125	850.0	0.8225	-0.5182186234817814	-666.0	-432.0	0.48380566801619435	0.4434928888209207	-49.0	-1.4441548805988513	83.0	-0.41339812391723607	-168.0	
0.05344033105862116	2017.0	10.105937867766878	1246.0	2086.0	0.2749423172924298	0.0	52993.0	9617.218017578125	850.0	0.8225	-0.5182186234817814	-666.0	-432.0	0.48380566801619435	0.09175714941122497	-47.0	-0.5530794824562588	26.0	-0.43517633725205995	-145.0	
0.06522320740139259	2019.0	10.093749311567832	1247.0	2085.0	0.25071998938970785	0.0	53633.0	9636.749267578125	845.0	0.81	-0.5101214574898786	-662.0	-430.0	0.47975708502024295	0.0764642911760208	-48.0	-1.9061238103918905	114.0	-0.43336229687329136	-144.0	
0.24399654049460393	2014.0	10.113939763746107	1245.0	2070.0	0.3131524956196272	0.0	54273.0	9656.280517578125	845.0	0.81	-0.5101214574898786	-662.0	-430.0	0.47975708502024295	0.4434928888209207	-57.0	-2.1990371464194802	132.0	-0.29819107731044314	-168.0	
0.12485695977191849	2019.0	10.104743596239468	1246.0	2080.0	0.2515362126068459	0.0	54913.0	9675.811767578125	845.0	0.81	-0.5101214574898786	-662.0	-430.0	0.47975708502024295	0.36702859764489987	-53.0	-1.9185123679777931	114.0	-0.35676376415852584	-163.0	
0.10104860674936349	2016.0	10.104860674936349	1246.0	2082.0	0.287445048963811	0.0	55553.0	9695.343017578125	845.0	0.81	-0.5101214574898786	-662.0	-430.0	0.47975708502024295	0.10705000764642914	-48.0	-1.0767887327799723	60.0	-0.42506894609717216	-146.0	
0.19614205145783475	2013.0	10.09039562197395	1247.0	2074.0	0.32425126066490073	0.0	56193.0	9714.874267578125	849.0	0.8200000000000001	-0.5141700404858299	-664.0	-432.0	0.48380566801619435	0.565835754702554	-40.0	-1.2169565782633147	68.0	-0.549226493817005	-176.0	
0.017857532047662397	2019.0	10.119086538099573	1245.0	2089.0	0.25075307716680545	0.0	56833.0	9734.405517578125	849.0	0.8200000000000001	-0.5141700404858299	-664.0	-432.0	0.48380566801619435	-0.4434928888209207	-53.0	-1.440054136683468	85.0	-0.35197918184558263	-110.0	
0.1724616224536461	2015.0	10.103305102507468	1246.0	2076.0	0.30017626044336054	0.0	57473.0	9753.936767578125	849.0	0.8200000000000001	-0.5141700404858299	-664.0	-432.0	0.48380566801619435	-0.21410001529285827	-47.0	-1.7251611518297538	103.0	-0.4468971539457949	-125.0	
-0.041776220322863516	2019.0	10.108092253427936	1246.0	2094.0	0.24993685394966744	0.0	58113.0	9773.468017578125	854.0	0.8325	-0.5101214574898786	-662.0	-427.0	0.4736842105263158	-0.1529285823520416	-35.0	-1.0182539131320811	57.0	-0.623961885456317	-129.0	
-0.006184990957537065	2024.0	10.095786618532006	1247.0	2091.0	0.18980568968998043	0.0	58753.0	9792.999267578125	854.0	0.8325	-0.5101214574898786	-662.0	-427.0	0.4736842105263158	0.21410001529285827	-46.0	-1.6806111676758686	99.0	-0.46179613776238093	-153.0	
0.10105342409471645	2020.0	10.105342409471644	1246.0	2082.0	0.23926196074363307	0.0	59393.0	9812.530517578125	854.0	0.8325	-0.5101214574898786	-662.0	-427.0	0.4736842105263158	0.5964214711729623	-55.0	-2.6970295651117127	164.0	-0.33385996881361524	-178.0	
0.10093272609437949	2021.0	10.09327260943795	1247.0	2082.0	0.22697116499187145	0.0	60033.0	9832.061767578125	854.0	0.8325	-0.5101214574898786	-662.0	-427.0	0.4736842105263158	0.18351429882244993	-56.0	-3.1728511052134456	196.0	-0.32327370055650767	-151.0	
0.005953957704554022	2018.0	10.119205294264926	1245.0	2090.0	0.26268460931776577	0.0	60673.0	9851.593017578125	852.0	0.8275	-0.5060728744939271	-660.0	-429.0	0.4777327935222672	-0.22939287352806242	-42.0	-2.431295048627959	149.0	-0.5306809112044015	-124.0	
0.14865808677644407	2016.0	10.103903915739645	1246.0	2078.0	0.2879020085801477	0.0	61313.0	9871.124267578125	852.0	0.8275	-0.5060728744939271	-660.0	-429.0	0.4777327935222672	0.3517357394096957	-46.0	-0.4710398918699532	20.0	-0.4497004250043218	-162.0	
0.017738038383663668	2021.0	10.107137171699701	1246.0	2089.0	0.22641650935999935	0.0	61953.0	9890.655517578125	852.0	0.8275	-0.5060728744939271	-660.0	-429.0	0.4777327935222672	0.1529285823520416	-48.0	-2.201415581672755	133.0	-0.4363152145861	-149.0	
