Device	Device	Device	Device	Device	Device	Device	Device	Device	Device	Device	Device	Device	Device	Device	Device	Device	Device	Device	Device	Device	
Low Noise Accelerometer X	Low Noise Accelerometer X	Low Noise Accelerometer Z	Low Noise Accelerometer Z	Low Noise Accelerometer Y	Low Noise Accelerometer Y	Event_Marker	Timestamp	Timestamp	Magnetometer Z	Magnetometer Z	Magnetometer X	Magnetometer X	Magnetometer Y	Magnetometer Y	Gyroscope Y	Gyroscope Y	Gyroscope Z	Gyroscope Z	Gyroscope X	Gyroscope X	
UNCAL	CAL	UNCAL	CAL	CAL	UNCAL	CAL	UNCAL	CAL	CAL	UNCAL	CAL	UNCAL	CAL	UNCAL	UNCAL	CAL	CAL	UNCAL	UNCAL	CAL	
no units	m/(s^2)	no units	m/(s^2)	m/(s^2)	no units	no units	no units	ms	local_flux	no units	local_flux	no units	local_flux	no units	no units	deg/s	deg/s	no units	no units	deg/s	
2032.0	0.29345623362590056	1230.0	10.298004314971012	0.1004609136959202	2066.0	0.0	16367.0	499.481201171875	0.755	823.0	0.5344129554655871	-146.0	-0.4777327935222672	43.0	-378.0	-45.496253249732376	-1.7643844605497676	220.0	2836.0	4.631734703806348	
2015.0	-0.844559471948126	1192.0	10.782148043282643	0.3035829083148463	2162.0	0.0	17007.0	519.012451171875	0.755	823.0	0.5344129554655871	-146.0	-0.4777327935222672	43.0	-93.0	-18.167915583422545	3.5693137285911667	-195.0	1049.0	0.31189384313216	
2031.0	-0.048710201477290396	1303.0	9.414694137985247	0.09142123857625734	2094.0	0.0	17647.0	538.543701171875	0.735	815.0	0.5425101214574899	-142.0	-0.46963562753036436	39.0	-32.0	14.910536779324056	41.984043165573766	-2778.0	-1114.0	-0.2399723656436334	
2061.0	0.22280835335913973	1224.0	10.376073431152069	-0.248081773144572	2072.0	0.0	18287.0	558.074951171875	0.735	815.0	0.5425101214574899	-142.0	-0.46963562753036436	39.0	-22.0	6.973543355253097	35.58165482708437	-2341.0	-595.0	-0.4574410856097764	
2011.0	1.2220596077642192	1228.0	10.301198871660004	0.3628228867638543	1988.0	0.0	18927.0	577.606201171875	0.735	815.0	0.5425101214574899	-142.0	-0.46963562753036436	39.0	-28.0	4.970178926441353	-2.0372613897737923	110.0	-464.0	-0.7415633458296086	
2030.0	0.13579735878500773	1254.0	10.0083073070722	0.11718677033170376	2079.0	0.0	19567.0	597.137451171875	0.7375	816.0	0.5344129554655871	-146.0	-0.4817813765182186	45.0	-24.0	11.668450833460774	-1.1971405790846528	38.0	-902.0	-0.7945400723552167	
2035.0	0.0886815097863191	1250.0	10.058627169108101	0.05748104522701317	2083.0	0.0	20207.0	616.668701171875	0.7375	816.0	0.5344129554655871	-146.0	-0.4817813765182186	45.0	-47.0	2.477443034103074	-1.0330151463972126	51.0	-301.0	-0.4399756938914695	
2038.0	0.06475848044511834	1251.0	10.047276615940405	0.02087022555699425	2085.0	0.0	20847.0	636.199951171875	0.7375	816.0	0.5344129554655871	-146.0	-0.4817813765182186	45.0	-68.0	1.5904572564612327	-1.1238069687558048	59.0	-243.0	-0.11864945529443238	
2035.0	0.10034007511973887	1252.0	10.034007511973888	0.05710523773766307	2082.0	0.0	21487.0	655.731201171875	0.7375	816.0	0.5344129554655871	-146.0	-0.4817813765182186	45.0	-63.0	5.47484324820309	-1.016927641133957	42.0	-497.0	-0.19430308030883844	
2034.0	-0.029490078260994243	1243.0	10.146230269138671	0.07009958411823577	2093.0	0.0	22127.0	675.262451171875	0.7425	818.0	0.5384615384615384	-144.0	-0.4574898785425101	33.0	-67.0	2.8903502064535864	-1.0987405041414444	54.0	-328.0	-0.1337432743064137	
2032.0	0.02928794908012887	1249.0	10.07165205087003	0.09329218556844285	2088.0	0.0	22767.0	694.793701171875	0.7425	818.0	0.5384615384615384	-144.0	-0.4574898785425101	33.0	-66.0	-0.45878574705612485	-1.0261578749665399	58.0	-109.0	-0.14836193167278955	
2032.0	0.02940985141680405	1248.0	10.083842284537548	0.09353720926515999	2088.0	0.0	23407.0	714.324951171875	0.7425	818.0	0.5384615384615384	-144.0	-0.4574898785425101	33.0	-66.0	0.061171432940816645	-0.9546698176634263	52.0	-143.0	-0.14764705109975843	
2033.0	0.06524006811012792	1247.0	10.095435382441362	0.08207918061908516	2085.0	0.0	24047.0	733.856201171875	0.7375	816.0	0.5364372469635628	-145.0	-0.4574898785425101	33.0	-53.0	1.0246215017586788	-1.0834936484662259	58.0	-206.0	-0.3484135769634102	
2034.0	0.005851324749290621	1246.0	10.108941998738585	0.06970723274033691	2090.0	0.0	24687.0	753.387451171875	0.7375	816.0	0.5364372469635628	-145.0	-0.4574898785425101	33.0	-49.0	1.513992965285212	-0.97940714523299	50.0	-238.0	-0.40875064656357746	
2036.0	-0.006292441258153425	1248.0	10.085041588470371	0.045011401332729545	2091.0	0.0	25327.0	772.918701171875	0.7375	816.0	0.5364372469635628	-145.0	-0.4574898785425101	33.0	-52.0	-0.09175714941122497	-1.0386895379938959	58.0	-133.0	-0.3633100195168118	
2034.0	0.04155843476960104	1246.0	10.108224429341057	0.07004995245258944	2087.0	0.0	25967.0	792.449951171875	0.7375	816.0	0.5364372469635628	-145.0	-0.4574898785425101	33.0	-58.0	0.948157210582658	-1.219628927437277	67.0	-201.0	-0.27305251146249615	
2034.0	0.01787559709273595	1245.0	10.120893042606928	0.07006649634113823	2089.0	0.0	26607.0	811.981201171875	0.73	813.0	0.5303643724696356	-148.0	-0.5101214574898786	59.0	-39.0	3.2726716623336904	-1.1097358074220456	54.0	-353.0	-0.5634987697667171	
2033.0	0.05345960044003295	1246.0	10.107864805908056	0.08220996441171811	2086.0	0.0	27247.0	831.512451171875	0.73	813.0	0.5303643724696356	-148.0	-0.5101214574898786	59.0	-54.0	5.276036091145436	-1.2229252359499554	56.0	-484.0	-0.3344634091801226	
2036.0	0.02965847343550737	1246.0	10.10870448640788	0.04584416843841632	2088.0	0.0	27887.0	851.043701171875	0.73	813.0	0.5303643724696356	-148.0	-0.5101214574898786	59.0	-89.0	9.022786358770455	-1.1474396312239679	41.0	-729.0	0.203348374901509	
2032.0	-0.04237007563384236	1251.0	10.04870672233005	0.09211669875050355	2094.0	0.0	28527.0	870.574951171875	0.7475	820.0	0.5303643724696356	-148.0	-0.47975708502024295	44.0	-87.0	0.09175714941122497	-0.9129730109167626	49.0	-145.0	0.17500407378833124	
2042.0	-0.06543135826394916	1245.0	10.123530840271751	-0.027099359427806835	2096.0	0.0	29167.0	890.106201171875	0.7475	820.0	0.5303643724696356	-148.0	-0.47975708502024295	44.0	-53.0	-0.33644288117449156	-1.0290565168620596	58.0	-117.0	-0.3478692056473685	
2035.0	-0.1729268256892737	1248.0	10.088269812025016	0.05545781473059555	2105.0	0.0	29807.0	909.637451171875	0.7475	820.0	0.5303643724696356	-148.0	-0.47975708502024295	44.0	-56.0	2.0645358617525615	-1.0640235088505388	54.0	-274.0	-0.3021854245928786	
2034.0	-0.06580669996468062	1248.0	10.085996670198606	0.06853174592239761	2096.0	0.0	30447.0	929.168701171875	0.7525000000000001	822.0	0.5364372469635628	-145.0	-0.46153846153846156	35.0	-63.0	0.6575929041137789	-1.1164903999054594	61.0	-182.0	-0.1952987078965535	
2032.0	-0.03010199861704667	1248.0	10.08503823353343	0.0929660097447391	2093.0	0.0	31087.0	948.699951171875	0.7525000000000001	822.0	0.5364372469635628	-145.0	-0.46153846153846156	35.0	-68.0	0.16822144058724578	-1.0515425136815657	58.0	-150.0	-0.11792681074368999	
2031.0	-0.04188367062347985	1247.0	10.097347223366302	0.10514256559241653	2094.0	0.0	31727.0	968.231201171875	0.7525000000000001	822.0	0.5364372469635628	-145.0	-0.46153846153846156	35.0	-60.0	0.04587857470561248	-1.0146604307923657	56.0	-142.0	-0.24031385917979725	
2033.0	-0.06580790430101886	1248.0	10.085876236564783	0.0805775179774421	2096.0	0.0	32367.0	987.762451171875	0.7525000000000001	822.0	0.5364372469635628	-145.0	-0.46153846153846156	35.0	-69.0	0.09175714941122497	-1.1101605206095615	62.0	-145.0	-0.10316850715484505	
2034.0	-0.042001959951140325	1248.0	10.085518290600254	0.06876022573056595	2094.0	0.0	33007.0	1007.293701171875	0.735	815.0	0.5384615384615384	-144.0	-0.46558704453441296	37.0	-72.0	0.1529285823520416	-1.1130674217468242	62.0	-149.0	-0.05716412519184296	
2035.0	-0.053781223284897026	1247.0	10.098068147700772	0.056845237468154425	2095.0	0.0	33647.0	1026.824951171875	0.735	815.0	0.5384615384615384	-144.0	-0.46558704453441296	37.0	-61.0	0.1529285823520416	-1.0190954324346397	56.0	-149.0	-0.22501372553809507	
2035.0	-0.05390312562157222	1248.0	10.085877914033253	0.05660021377143731	2095.0	0.0	34287.0	1046.356201171875	0.735	815.0	0.5384615384615384	-144.0	-0.46558704453441296	37.0	-65.0	0.061171432940816645	-1.0314199422383221	57.0	-143.0	-0.16375903600363229	
2032.0	-0.05390673863058694	1248.0	10.085516613131782	0.09273752993657076	2095.0	0.0	34927.0	1065.887451171875	0.7475	820.0	0.520242914979757	-153.0	-0.4736842105263158	41.0	-70.0	0.12234286588163329	-0.988491569921732	54.0	-147.0	-0.08660733398984186	
2033.0	-0.03022269661738361	1249.0	10.072968433499735	0.08067521399297749	2093.0	0.0	35567.0	1085.418701171875	0.7475	820.0	0.520242914979757	-153.0	-0.4736842105263158	41.0	-57.0	0.061171432940816645	-1.1378574819852063	64.0	-143.0	-0.2875792806661004	
2033.0	-0.018076521937263085	1247.0	10.097109711035596	0.08127950129049592	2092.0	0.0	36207.0	1104.949951171875	0.7475	820.0	0.520242914979757	-153.0	-0.4736842105263158	41.0	-65.0	0.0	-1.0904961728367777	61.0	-139.0	-0.16434979830961685	
2034.0	-0.042001959951140325	1248.0	10.085518290600254	0.06876022573056595	2094.0	0.0	36847.0	1124.481201171875	0.7475	820.0	0.520242914979757	-153.0	-0.4736842105263158	41.0	-63.0	0.16822144058724578	-0.9431103905174674	51.0	-150.0	-0.19356490780267355	
2034.0	-0.0659286023013558	1249.0	10.073806436531088	0.06828672222568047	2096.0	0.0	37487.0	1144.012451171875	0.745	819.0	0.5323886639676113	-147.0	-0.45951417004048584	34.0	-56.0	-0.015292858235204161	-1.0577422326025876	59.0	-138.0	-0.3021226118303991	
2035.0	-0.07758596329843732	1247.0	10.098546527299126	0.056616757659986056	2097.0	0.0	38127.0	1163.543701171875	0.745	819.0	0.5323886639676113	-147.0	-0.45951417004048584	34.0	-66.0	-0.030585716470408322	-0.9509998986788758	52.0	-137.0	-0.14761035190991292	
2033.0	-0.042125066624153745	1249.0	10.073207623298911	0.08056097408889332	2094.0	0.0	38767.0	1183.074951171875	0.745	819.0	0.5323886639676113	-147.0	-0.45951417004048584	34.0	-67.0	0.015292858235204161	-0.9837497092921941	54.0	-140.0	-0.13259336635792118	
2032.0	-0.00629725860350637	1248.0	10.084559853935078	0.09319448955290746	2091.0	0.0	39407.0	1202.606201171875	0.735	815.0	0.520242914979757	-153.0	-0.5182186234817814	63.0	-69.0	0.04587857470561248	-1.031422007048758	57.0	-142.0	-0.10238112201923702	
2032.0	-0.053784836293911745	1247.0	10.097706846799301	0.09298255363328788	2095.0	0.0	40047.0	1222.137451171875	0.735	815.0	0.520242914979757	-153.0	-0.5182186234817814	63.0	-50.0	0.13763572411683744	-1.093699608909125	61.0	-148.0	-0.3945490875422139	
2032.0	-0.07771147864412724	1248.0	10.085994992730134	0.09250905012840241	2097.0	0.0	40687.0	1241.668701171875	0.735	815.0	0.520242914979757	-153.0	-0.5182186234817814	63.0	-74.0	0.09175714941122497	-1.0801662464503097	60.0	-145.0	-0.026146146122628	
2035.0	-0.07770786563511252	1248.0	10.086356293631606	0.056371733963268944	2097.0	0.0	41327.0	1261.199951171875	0.7475	820.0	0.5323886639676113	-147.0	-0.48785425101214575	48.0	-64.0	0.0764642911760208	-1.001116744281371	55.0	-144.0	-0.17880048768218768	
2096.0	0.24307601839353948	1351.0	8.831411363163475	-0.7004590848419517	2069.0	0.0	41967.0	1280.731201171875	0.7475	820.0	0.5323886639676113	-147.0	-0.48785425101214575	48.0	-57.0	-0.061171432940816645	-0.9945378593491221	55.0	-135.0	-0.28614608443973955	
2035.0	0.2429247105276302	1254.0	10.006756767048733	0.057986069193238954	2070.0	0.0	42607.0	1300.262451171875	0.7475	820.0	0.5323886639676113	-147.0	-0.48785425101214575	48.0	-87.0	5.1384003670285985	-2.176087601212728	118.0	-475.0	0.16237292788537158	
2033.0	-0.04175935961412819	1246.0	10.109778324301466	0.08129604517904471	2094.0	0.0	43247.0	1319.793701171875	0.7475	820.0	0.5323886639676113	-147.0	-0.48785425101214575	48.0	-86.0	6.499464749961769	-0.9999144382268157	38.0	-564.0	0.1587901758571058	
2029.0	-0.06556891697302145	1246.0	10.109774969364524	0.12925065359105425	2096.0	0.0	43887.0	1339.324951171875	0.7475	820.0	0.5303643724696356	-148.0	-0.48785425101214575	48.0	-78.0	1.6669215476372536	-0.8361660240521764	40.0	-248.0	0.037671790733852954	
2032.0	-0.03010199861704667	1248.0	10.08503823353343	0.0929660097447391	2093.0	0.0	44527.0	1358.856201171875	0.7475	820.0	0.5303643724696356	-148.0	-0.48785425101214575	48.0	-79.0	-0.7952286282306164	-0.7532240049407409	41.0	-87.0	0.05384569458309221	
2036.0	-0.029975278935018515	1247.0	10.097710201736245	0.04502794522127829	2093.0	0.0	45167.0	1378.387451171875	0.7475	820.0	0.5303643724696356	-148.0	-0.48785425101214575	48.0	-81.0	-1.91160727940052	-0.9242101343411847	55.0	-14.0	0.08282480060533759	
2036.0	0.00560992874861671	1248.0	10.084802398671195	0.0451256412368137	2090.0	0.0	45807.0	1397.918701171875	0.7375	816.0	0.52834008097166	-149.0	-0.4979757085020243	53.0	-85.0	-2.46215017586787	-0.8566622059672921	52.0	22.0	0.14487821452157615	
2038.0	-0.029972870262342063	1247.0	10.09795106900389	0.02093640111118933	2093.0	0.0	46447.0	1417.449951171875	0.7375	816.0	0.52834008097166	-149.0	-0.4979757085020243	53.0	-97.0	-0.24468573176326658	-0.9010509362430629	49.0	-123.0	0.32856813111631733	
2033.0	-0.03010079428070843	1248.0	10.085158667167253	0.08092023768969463	2093.0	0.0	47087.0	1436.981201171875	0.7375	816.0	0.52834008097166	-149.0	-0.4979757085020243	53.0	-78.0	0.764642911760208	-1.2461191009682246	69.0	-189.0	0.03357225996469247	
2032.0	-0.05390673863058694	1248.0	10.085516613131782	0.09273752993657076	2095.0	0.0	47727.0	1456.512451171875	0.7375	816.0	0.52834008097166	-149.0	-0.4979757085020243	53.0	-58.0	0.5505428964673498	-1.0345381262201299	56.0	-175.0	-0.2712016034503247	
2031.0	0.01738437473702048	1249.0	10.071770807035383	0.10522371771940316	2089.0	0.0	48367.0	1476.043701171875	0.74	817.0	0.5303643724696356	-148.0	-0.5040485829959515	56.0	-83.0	-0.12234286588163329	-1.1037453892231233	62.0	-131.0	0.11171841537276801	
2033.0	-0.00629605426716813	1248.0	10.0846802875689	0.08114871749786298	2091.0	0.0	49007.0	1495.574951171875	0.74	817.0	0.5303643724696356	-148.0	-0.5040485829959515	56.0	-81.0	0.5352500382321457	-1.1451203271055104	63.0	-174.0	0.08061569867769433	
2033.0	-0.03010079428070843	1248.0	10.085158667167253	0.08092023768969463	2093.0	0.0	49647.0	1515.106201171875	0.74	817.0	0.5303643724696356	-148.0	-0.5040485829959515	56.0	-72.0	0.8105214864658206	-0.9086578455971858	47.0	-192.0	-0.05512002943034657	
2033.0	-0.04175935961412819	1246.0	10.109778324301466	0.08129604517904471	2094.0	0.0	50287.0	1534.637451171875	0.75	821.0	0.5020242914979757	-162.0	-0.4939271255060729	51.0	-57.0	0.030585716470408322	-0.9674463567062613	53.0	-141.0	-0.285875169413311	
2036.0	-0.006414343594828606	1249.0	10.072851354802854	0.044766377636012405	2091.0	0.0	50927.0	1554.168701171875	0.75	821.0	0.5020242914979757	-162.0	-0.4939271255060729	51.0	-49.0	0.5046643217617374	-1.046703012098873	57.0	-172.0	-0.40942360523223625	
2031.0	0.005725809403600721	1247.0	10.096390464169597	0.10559952520875324	2090.0	0.0	51567.0	1573.699951171875	0.75	821.0	0.5020242914979757	-162.0	-0.4939271255060729	51.0	-42.0	0.45878574705612485	-0.92074835964153	49.0	-169.0	-0.5155754443145372	
2031.0	-0.04176176828680467	1246.0	10.10953745703382	0.10538758928913367	2094.0	0.0	52207.0	1593.231201171875	0.7475	820.0	0.5242914979757085	-151.0	-0.5020242914979757	55.0	-42.0	0.12234286588163329	-0.9380534116589224	51.0	-147.0	-0.5157484948347111	
2033.0	-0.03010079428070843	1248.0	10.085158667167253	0.08092023768969463	2093.0	0.0	52847.0	1612.762451171875	0.7475	820.0	0.5242914979757085	-151.0	-0.5020242914979757	55.0	-43.0	-0.764642911760208	-1.0872994873996993	63.0	-89.0	-0.501896471933994	
2034.0	-0.03009958994437019	1248.0	10.085279100801078	0.06887446563465013	2093.0	0.0	53487.0	1632.293701171875	0.7475	820.0	0.5242914979757085	-151.0	-0.5020242914979757	55.0	-49.0	0.015292858235204161	-0.9963686892205258	55.0	-140.0	-0.4089202620034528	
2035.0	-0.006293645594491651	1248.0	10.084921154836548	0.057057173387774024	2091.0	0.0	54127.0	1651.824951171875	0.7475	820.0	0.5242914979757085	-151.0	-0.5020242914979757	55.0	-21.0	0.8564000611714331	-1.1026171414924075	60.0	-195.0	-0.839628288953669	
2034.0	-0.054148134631260836	1250.0	10.061377013064392	0.06815593843304754	2095.0	0.0	54767.0	1671.356201171875	0.7475	820.0	0.5121457489878543	-157.0	-0.4959514170040486	52.0	3.0	0.48937146352653316	-0.7920216522466339	41.0	-171.0	-1.2047899418562091	
2031.0	-0.042005572960155044	1248.0	10.085156989698783	0.10489754189569941	2094.0	0.0	55407.0	1690.887451171875	0.7475	820.0	0.5121457489878543	-157.0	-0.4959514170040486	52.0	-58.0	0.061171432940816645	-0.9688230925280767	53.0	-143.0	-0.2705444531134042	
2032.0	-0.017955823936926144	1246.0	10.109179511069291	0.09357029704225754	2092.0	0.0	56047.0	1710.418701171875	0.7475	820.0	0.5121457489878543	-157.0	-0.4959514170040486	52.0	-64.0	0.7340571952897997	-1.0581792519647277	57.0	-187.0	-0.17937111275902123	
2034.0	-0.04188005761446513	1247.0	10.097708524267773	0.06900524942728306	2094.0	0.0	56687.0	1729.949951171875	0.7475	820.0	0.5182186234817814	-154.0	-0.4858299595141701	47.0	-58.0	0.6575929041137789	-0.8696318794180107	45.0	-182.0	-0.2695525409823035	
2036.0	-0.042121453615139026	1249.0	10.073568924200384	0.04442365792375985	2094.0	0.0	57327.0	1749.481201171875	0.7475	820.0	0.5182186234817814	-154.0	-0.4858299595141701	47.0	-44.0	0.6423000458785748	-0.959156478225306	51.0	-181.0	-0.4852705581841251	
2034.0	-0.018441024610950416	1250.0	10.060659443666864	0.06849865814530007	2092.0	0.0	57967.0	1769.012451171875	0.7475	820.0	0.5182186234817814	-154.0	-0.4858299595141701	47.0	-53.0	-0.0764642911760208	-0.9317896449556804	51.0	-134.0	-0.34689653692830474	
2035.0	-0.02973267859800638	1245.0	10.121970235437457	0.057563764669757045	2093.0	0.0	58607.0	1788.543701171875	0.7475	820.0	0.5182186234817814	-154.0	-0.4858299595141701	47.0	-70.0	0.061171432940816645	-0.8476185599420147	45.0	-143.0	-0.08519860389004469	
2032.0	-0.04176056395046643	1246.0	10.109657890667643	0.09334181723408919	2094.0	0.0	59247.0	1808.074951171875	0.74	817.0	0.5242914979757085	-151.0	-0.46153846153846156	35.0	-68.0	0.45878574705612485	-1.0939253454267204	60.0	-169.0	-0.11835063906114154	
2033.0	-0.018076521937263085	1247.0	10.097109711035596	0.08127950129049592	2092.0	0.0	59887.0	1827.606201171875	0.74	817.0	0.5242914979757085	-151.0	-0.46153846153846156	35.0	-57.0	-0.7340571952897997	-1.0599093850113182	61.0	-91.0	-0.2867997996963615	
2036.0	-0.018194811264923574	1248.0	10.085280778269547	0.04489716142864536	2092.0	0.0	60527.0	1847.137451171875	0.74	817.0	0.5242914979757085	-151.0	-0.46153846153846156	35.0	-72.0	-2.186878727634195	-0.942580933572257	57.0	4.0	-0.05545926031009729	
2034.0	-0.03009958994437019	1248.0	10.085279100801078	0.06887446563465013	2093.0	0.0	61167.0	1866.668701171875	0.7375	816.0	0.5182186234817814	-154.0	-0.4817813765182186	45.0	-91.0	-0.3211500229392874	-1.035498490784163	58.0	-118.0	0.23515675362215685	
2033.0	-0.03010079428070843	1248.0	10.085158667167253	0.08092023768969463	2093.0	0.0	61807.0	1886.199951171875	0.7375	816.0	0.5182186234817814	-154.0	-0.4817813765182186	45.0	-80.0	0.5199571799969415	-1.0366902687518478	56.0	-173.0	0.06635551560310606	
2033.0	-0.01819842427393828	1248.0	10.084919477368077	0.08103447759377881	2092.0	0.0	62447.0	1905.731201171875	0.7375	816.0	0.5182186234817814	-154.0	-0.4817813765182186	45.0	-65.0	0.41290717235051233	-0.9070615676890825	48.0	-166.0	-0.1625154522581399	
2032.0	-0.042126270960491985	1249.0	10.073087189665088	0.0926067461439378	2094.0	0.0	63087.0	1925.262451171875	0.75	821.0	0.5141700404858299	-156.0	-0.48380566801619435	46.0	-83.0	-0.21410001529285827	-1.0231719161700445	57.0	-125.0	0.11252415010329879	
2031.0	-0.053786040630249984	1247.0	10.097586413165478	0.10502832568833236	2095.0	0.0	63727.0	1944.793701171875	0.75	821.0	0.5141700404858299	-156.0	-0.48380566801619435	46.0	-78.0	-0.8411072029362289	-0.7358549051411283	40.0	-84.0	0.03867490192296344	
2033.0	-0.053783631957573505	1247.0	10.097827280433126	0.0809367815782434	2095.0	0.0	64367.0	1964.324951171875	0.75	821.0	0.5141700404858299	-156.0	-0.48380566801619435	46.0	-71.0	-0.6270071876433706	-0.9740547051885734	55.0	-98.0	-0.07111848168438535	
2034.0	-0.04188005761446513	1247.0	10.097708524267773	0.06900524942728306	2094.0	0.0	65007.0	1983.856201171875	0.75	821.0	0.5141700404858299	-156.0	-0.48380566801619435	46.0	-91.0	-0.6728857623489831	-0.8830040706867024	49.0	-95.0	0.23668169782313145	
2034.0	-0.03009958994437019	1248.0	10.085279100801078	0.06887446563465013	2093.0	0.0	111.0	2003.387451171875	0.7425	818.0	0.520242914979757	-153.0	-0.4736842105263158	41.0	-96.0	-0.9175714941122497	-1.2123604054309165	71.0	-79.0	0.3101105527663139	
2024.0	-0.20742816004255282	1238.0	10.209564948125674	0.1900688245910036	2108.0	0.0	751.0	2022.918701171875	0.7425	818.0	0.520242914979757	-153.0	-0.4736842105263158	41.0	-113.0	-0.6270071876433706	-1.2727322493815187	74.0	-98.0	0.5703630565149314	
2030.0	0.029041735734102028	1251.0	10.047030716267345	0.11689368228509756	2088.0	0.0	1391.0	2042.449951171875	0.7425	818.0	0.520242914979757	-153.0	-0.4736842105263158	41.0	-87.0	-1.605750114696437	-1.1680744367903948	70.0	-34.0	0.17245305952959492	
2031.0	-0.01820083294661476	1248.0	10.084678610100429	0.10512602170386777	2092.0	0.0	2031.0	2061.981201171875	0.7325	814.0	0.5303643724696356	-148.0	-0.4716599190283401	40.0	-80.0	-1.896314421165316	-0.9708104904527612	58.0	-15.0	0.06701431338609692	
2033.0	0.02928915341646711	1249.0	10.071772484503855	0.08124641351339837	2088.0	0.0	2671.0	2081.512451171875	0.7325	814.0	0.5303643724696356	-148.0	-0.4716599190283401	40.0	-106.0	-2.875057348218382	-1.1971259386183126	75.0	49.0	0.46370773401568893	
2033.0	-0.006174151930492935	1247.0	10.09687052123642	0.0813937411945801	2091.0	0.0	3311.0	2101.043701171875	0.7325	814.0	0.5303643724696356	-148.0	-0.4716599190283401	40.0	-82.0	-1.131671509405108	-1.2631720914776077	75.0	-65.0	0.09477966469209825	
2031.0	0.017262472400345286	1250.0	10.059580573367864	0.10497869402268604	2089.0	0.0	3951.0	2120.574951171875	0.7425	818.0	0.5303643724696356	-148.0	-0.4574898785425101	33.0	-56.0	0.8105214864658206	-0.9062029736990755	47.0	-192.0	-0.30060721924136397	
2031.0	-0.006176560603169415	1247.0	10.096629653968773	0.10548528530466905	2091.0	0.0	4591.0	2140.106201171875	0.7425	818.0	0.5384615384615384	-144.0	-0.4574898785425101	33.0	-43.0	1.7433858388132744	-1.0338034981736917	53.0	-253.0	-0.5013615120417338	
2034.0	0.005851324749290621	1246.0	10.108941998738585	0.06970723274033691	2090.0	0.0	5231.0	2159.637451171875	0.7425	818.0	0.5384615384615384	-144.0	-0.4574898785425101	33.0	-55.0	0.474078605291329	-0.892593174595425	47.0	-170.0	-0.3158156049084524	
2035.0	-0.006293645594491651	1248.0	10.084921154836548	0.057057173387774024	2091.0	0.0	5871.0	2179.168701171875	0.7425	818.0	0.5384615384615384	-144.0	-0.4574898785425101	33.0	-64.0	0.25997858999847073	-1.0238372930641777	56.0	-156.0	-0.17902769317001577	
2032.0	0.005848916076614141	1246.0	10.108701131470939	0.0937987768504259	2090.0	0.0	6511.0	2198.699951171875	0.7525000000000001	822.0	0.5323886639676113	-147.0	-0.45951417004048584	34.0	-59.0	-1.2234286588163328	-0.8868362346105899	51.0	-59.0	-0.2543801008761044	
2034.0	0.005607520075940245	1248.0	10.084561531403548	0.06921718534690266	2090.0	0.0	7151.0	2218.231201171875	0.7525000000000001	822.0	0.5323886639676113	-147.0	-0.45951417004048584	34.0	-50.0	0.030585716470408322	-0.9509916394371326	52.0	-141.0	-0.393122007847494	
2033.0	0.005606315739602005	1248.0	10.084441097769725	0.08126295740194717	2090.0	0.0	7791.0	2237.762451171875	0.7525000000000001	822.0	0.5323886639676113	-147.0	-0.45951417004048584	34.0	-51.0	0.8411072029362289	-0.9835626866276277	52.0	-194.0	-0.37810323466127405	
2032.0	0.0175074814100339	1248.0	10.084081474336724	0.09342296936107582	2089.0	0.0	8431.0	2257.293701171875	0.7375	816.0	0.5344129554655871	-146.0	-0.4817813765182186	45.0	-60.0	0.0	-0.8128762307219177	43.0	-139.0	-0.23829601717909277	
2032.0	-0.01819962861027652	1248.0	10.084799043734254	0.09308024964882329	2092.0	0.0	9071.0	2276.824951171875	0.7375	816.0	0.5344129554655871	-146.0	-0.4817813765182186	45.0	-57.0	-0.09175714941122497	-1.0702181070894665	60.0	-133.0	-0.286902886917143	
2033.0	-0.006174151930492935	1247.0	10.09687052123642	0.0813937411945801	2091.0	0.0	9711.0	2296.356201171875	0.7375	816.0	0.5344129554655871	-146.0	-0.4817813765182186	45.0	-42.0	-0.04587857470561248	-0.900563805226502	49.0	-136.0	-0.5153735987703869	
2034.0	-0.018075317600924845	1247.0	10.097230144669421	0.06923372923545143	2092.0	0.0	10351.0	2315.887451171875	0.7375	816.0	0.5344129554655871	-146.0	-0.4817813765182186	45.0	-52.0	0.10705000764642914	-0.8005496561077993	42.0	-146.0	-0.3609286206979508	
2035.0	-0.006293645594491651	1248.0	10.084921154836548	0.057057173387774024	2091.0	0.0	10991.0	2335.418701171875	0.745	819.0	0.5364372469635628	-145.0	-0.4736842105263158	41.0	-60.0	-0.18351429882244993	-0.9593435008898724	53.0	-127.0	-0.23976068988077232	
2032.0	-0.01819962861027652	1248.0	10.084799043734254	0.09308024964882329	2092.0	0.0	11631.0	2354.949951171875	0.745	819.0	0.5364372469635628	-145.0	-0.4736842105263158	41.0	-52.0	-0.22939287352806242	-0.9870425270759533	55.0	-124.0	-0.36279354940763237	
2033.0	-0.006174151930492935	1247.0	10.09687052123642	0.0813937411945801	2091.0	0.0	12271.0	2374.481201171875	0.745	819.0	0.5364372469635628	-145.0	-0.4736842105263158	41.0	-52.0	-0.18351429882244993	-1.0657810406367565	60.0	-127.0	-0.3635809345432404	
2032.0	-0.006175356266831175	1247.0	10.096750087602597	0.09343951324962457	2091.0	0.0	12911.0	2394.012451171875	0.75	821.0	0.5344129554655871	-146.0	-0.45546558704453444	32.0	-53.0	-0.12234286588163329	-1.0837617936004609	61.0	-131.0	-0.34841625841475254	
2033.0	-0.00629605426716813	1248.0	10.0846802875689	0.08114871749786298	2091.0	0.0	13551.0	2413.543701171875	0.75	821.0	0.5344129554655871	-146.0	-0.45546558704453444	32.0	-49.0	0.33644288117449156	-0.8400255867156912	44.0	-161.0	-0.40735683097840447	
2035.0	0.005364919738928109	1250.0	10.060301497702335	0.05668136589842393	2090.0	0.0	14191.0	2433.074951171875	0.75	821.0	0.5344129554655871	-146.0	-0.45546558704453444	32.0	-61.0	-0.5199571799969415	-0.9460405607734856	53.0	-105.0	-0.22428317682148355	
2032.0	0.00572701373993896	1247.0	10.096510897803421	0.09355375315370876	2090.0	0.0	14831.0	2452.606201171875	0.7325	814.0	0.5404858299595142	-143.0	-0.45546558704453444	32.0	-55.0	-0.7187643370545955	-0.9986913359333237	57.0	-92.0	-0.31687658652183137	
2032.0	-0.006175356266831175	1247.0	10.096750087602597	0.09343951324962457	2091.0	0.0	15471.0	2472.137451171875	0.7325	814.0	0.5404858299595142	-143.0	-0.45546558704453444	32.0	-65.0	-0.061171432940816645	-0.9803845844844715	54.0	-135.0	-0.16324868242609378	
2034.0	0.005485617739265064	1249.0	10.07237129773603	0.06897216165018552	2090.0	0.0	16111.0	2491.668701171875	0.7325	814.0	0.5404858299595142	-143.0	-0.45546558704453444	32.0	-57.0	0.09175714941122497	-0.9545122585489229	52.0	-145.0	-0.28574582843173757	
2032.0	0.00572701373993896	1247.0	10.096510897803421	0.09355375315370876	2090.0	0.0	16751.0	2511.199951171875	0.7325	814.0	0.5404858299595142	-143.0	-0.45546558704453444	32.0	-67.0	-0.030585716470408322	-1.1049604363095635	62.0	-137.0	-0.13380547362809486	
2035.0	0.005730626748953679	1247.0	10.096872198704892	0.05741643698857529	2090.0	0.0	17391.0	2530.731201171875	0.74	817.0	0.5445344129554656	-141.0	-0.46558704453441296	37.0	-83.0	-0.18351429882244993	-1.0397759333119336	58.0	-127.0	0.11235810993187992	
2034.0	-0.01831912227427522	1249.0	10.072849677334384	0.06874368184201718	2092.0	0.0	18031.0	2550.262451171875	0.74	817.0	0.5445344129554656	-141.0	-0.46558704453441296	37.0	-65.0	-0.1988071570576541	-0.8979761519391178	49.0	-126.0	-0.16242459810064025	
2031.0	-0.006176560603169415	1247.0	10.096629653968773	0.10548528530466905	2091.0	0.0	18671.0	2569.793701171875	0.74	817.0	0.5445344129554656	-141.0	-0.46558704453441296	37.0	-71.0	-0.33644288117449156	-0.9087725612377888	50.0	-117.0	-0.0704656602448775	
2033.0	0.0057282180762772	1247.0	10.096631331437244	0.08150798109866428	2090.0	0.0	19311.0	2589.324951171875	0.745	819.0	0.5323886639676113	-147.0	-0.4574898785425101	33.0	-66.0	-0.13763572411683744	-1.1620482779221117	66.0	-130.0	-0.1497208357023453	
2033.0	0.005606315739602005	1248.0	10.084441097769725	0.08126295740194717	2090.0	0.0	19951.0	2608.856201171875	0.745	819.0	0.5323886639676113	-147.0	-0.4574898785425101	33.0	-75.0	-0.5811286129377581	-0.9918840934690819	56.0	-101.0	-0.009918840934690818	
2034.0	0.02941226008948053	1248.0	10.084083151805196	0.06944566515507103	2088.0	0.0	20591.0	2628.387451171875	0.745	819.0	0.5323886639676113	-147.0	-0.4574898785425101	33.0	-59.0	-0.3058571647040832	-0.9235354244560954	51.0	-119.0	-0.2547470927745594	
2033.0	0.0057282180762772	1247.0	10.096631331437244	0.08150798109866428	2090.0	0.0	21231.0	2647.918701171875	0.745	819.0	0.5323886639676113	-147.0	-0.4574898785425101	33.0	-78.0	0.1988071570576541	-1.0389194041323626	57.0	-152.0	0.035644256933051094	
2031.0	0.01750627707369566	1248.0	10.083961040702901	0.1054687414161203	2089.0	0.0	21871.0	2667.449951171875	0.74	817.0	0.5344129554655871	-146.0	-0.46356275303643724	36.0	-63.0	-0.41290717235051233	-0.7968218837723359	43.0	-112.0	-0.19210202273522223	
2033.0	0.01750868574637214	1248.0	10.084201907970549	0.08137719730603134	2089.0	0.0	22511.0	2686.981201171875	0.74	817.0	0.5344129554655871	-146.0	-0.46356275303643724	36.0	-69.0	-0.3211500229392874	-0.8629352229735	47.0	-118.0	-0.10069625417848443	
2034.0	0.017631792419385575	1247.0	10.096512575271891	0.06957644894770396	2089.0	0.0	23151.0	2706.512451171875	0.74	817.0	0.5344129554655871	-146.0	-0.46356275303643724	36.0	-75.0	-0.1988071570576541	-0.8841297360617311	48.0	-126.0	-0.008841297360617312	
2032.0	0.00572701373993896	1247.0	10.096510897803421	0.09355375315370876	2090.0	0.0	23791.0	2726.043701171875	0.7275	812.0	0.5445344129554656	-141.0	-0.47975708502024295	44.0	-72.0	0.12234286588163329	-0.9272755856541735	50.0	-147.0	-0.05530620683091645	
2032.0	0.0056051114032637656	1248.0	10.084320664135902	0.09330872945699165	2090.0	0.0	24431.0	2745.574951171875	0.7275	812.0	0.5445344129554656	-141.0	-0.47975708502024295	44.0	-65.0	0.8564000611714331	-1.0939873283985049	59.0	-195.0	-0.16438470986523412	
2034.0	0.005607520075940245	1248.0	10.084561531403548	0.06921718534690266	2090.0	0.0	25071.0	2765.106201171875	0.7275	812.0	0.5445344129554656	-141.0	-0.47975708502024295	44.0	-64.0	0.9940357852882705	-0.9455316692446429	49.0	-204.0	-0.1782446369318204	
2032.0	0.017629383746709096	1247.0	10.096271708004243	0.09366799305779293	2089.0	0.0	25711.0	2784.637451171875	0.745	819.0	0.5364372469635628	-145.0	-0.4817813765182186	45.0	-70.0	0.5352500382321457	-1.0665290486070318	58.0	-174.0	-0.08738770877669484	
2033.0	0.005606315739602005	1248.0	10.084441097769725	0.08126295740194717	2090.0	0.0	26351.0	2804.168701171875	0.745	819.0	0.5364372469635628	-145.0	-0.4817813765182186	45.0	-59.0	0.12234286588163329	-1.0175652671191926	56.0	-147.0	-0.25568739120119044	
2034.0	0.029534162426155725	1247.0	10.096273385472715	0.06969068885178814	2088.0	0.0	26991.0	2823.699951171875	0.745	819.0	0.5364372469635628	-145.0	-0.4817813765182186	45.0	-69.0	0.9175714941122497	-0.927859840078638	48.0	-199.0	-0.10134550034953582	
1986.0	0.3984498244917947	1247.0	10.083077687274715	0.6514291845205327	2057.0	0.0	27631.0	2843.231201171875	0.745	819.0	0.5364372469635628	-145.0	-0.4817813765182186	45.0	-97.0	1.881021562930112	-0.7861214854736445	36.0	-262.0	0.3297174256240115	
2052.0	0.8268927285971682	1248.0	10.070225240669213	-0.13972415826208978	2021.0	0.0	28271.0	2862.762451171875	0.735	815.0	0.5384615384615384	-144.0	-0.4898785425101215	49.0	-7.0	4.954886068206148	4.149618029866214	-292.0	-463.0	-1.0019287084538315	
2058.0	1.1245811071211265	1247.0	10.07715833116027	-0.20889776929353518	1996.0	0.0	28911.0	2882.293701171875	0.735	815.0	0.5384615384615384	-144.0	-0.4898785425101215	49.0	-16.0	2.4468573176326656	11.539005209031023	-766.0	-299.0	-0.7899344837390593	
2031.0	-0.1483954890010352	1242.0	10.160451099896482	0.10533952493924457	2103.0	0.0	29551.0	2901.824951171875	0.735	815.0	0.5384615384615384	-144.0	-0.4898785425101215	49.0	-37.0	1.0093286435234747	4.16439526406958	-283.0	-205.0	-0.5414464263680506	
2059.0	0.6486094135233342	1246.0	10.09903659042866	-0.22526811381522957	2036.0	0.0	30191.0	2921.356201171875	0.73	813.0	0.52834008097166	-149.0	-0.5060728744939271	57.0	-58.0	0.18351429882244993	9.254456373273404	-612.0	-151.0	-0.16831165845538937	
2077.0	0.9102394270530152	1248.0	10.071561752920571	-0.4400687803096126	2014.0	0.0	30831.0	2940.887451171875	0.73	813.0	0.52834008097166	-149.0	-0.5060728744939271	57.0	-103.0	0.6728857623489831	-15.688772373394016	1008.0	-183.0	0.2727578186935572	
2063.0	0.8035888456300494	1244.0	10.120789324909703	-0.2714760358888789	2023.0	0.0	31471.0	2960.418701171875	0.73	813.0	0.52834008097166	-149.0	-0.5060728744939271	57.0	-96.0	1.1928429423459246	-42.20945930653243	2731.0	-217.0	-0.09986043624470131	
2076.0	0.9362372047903706	1230.0	10.290387145703736	-0.4233841019054915	2012.0	0.0	32111.0	2979.949951171875	0.73	813.0	0.52834008097166	-149.0	-0.5060728744939271	57.0	-110.0	0.7340571952897997	-34.08762312569768	2204.0	-187.0	0.19618069677739491	
2061.0	1.4799491876197928	1261.0	9.899680666741189	-0.24503822009018308	1966.0	0.0	32751.0	2999.481201171875	0.7375	816.0	0.5344129554655871	-146.0	-0.49190283400809715	50.0	-128.0	-0.6728857623489831	-11.947412037005398	768.0	-95.0	0.6937835135105661	
2073.0	-0.6445873770589196	1212.0	10.541262294108044	-0.3980302664426452	2145.0	0.0	33391.0	3019.012451171875	0.7375	816.0	0.5344129554655871	-146.0	-0.49190283400809715	50.0	-81.0	-2.7833001988071575	-2.3351327204762793	149.0	43.0	0.06871557474398664	
2020.0	0.13676053411502687	1246.0	10.104624840074115	0.23960468045588562	2079.0	0.0	34031.0	3038.543701171875	0.7375	816.0	0.5344129554655871	-146.0	-0.49190283400809715	50.0	-4.0	-1.3610643829331703	-9.793705005933248	631.0	-50.0	-1.1873953897862008	
2045.0	0.24391197258441408	1246.0	10.10548297272712	-0.06051146178346886	2070.0	0.0	34671.0	3058.074951171875	0.7375	816.0	0.5404858299595142	-143.0	-0.4716599190283401	40.0	-25.0	-0.13763572411683744	-12.460580116756809	801.0	-130.0	-0.8918299840738134	
2057.0	0.7675088025816841	1247.0	10.084213591501733	-0.20027919436101596	2026.0	0.0	35311.0	3077.606201171875	0.7375	816.0	0.5404858299595142	-143.0	-0.4716599190283401	40.0	-40.0	-2.09512157822297	3.196070100126215	-212.0	-2.0	-0.5050962270331096	
2016.0	1.0789933846913182	1230.0	10.2802908500842	0.30073310024618755	2000.0	0.0	35951.0	3097.137451171875	0.7375	816.0	0.5404858299595142	-143.0	-0.4716599190283401	40.0	-61.0	-1.1163786511699039	-1.0144703522561407	59.0	-66.0	-0.2249674747363101	
2070.0	1.207668344531226	1249.0	10.052548738836883	-0.3531374020189139	1989.0	0.0	36591.0	3116.668701171875	0.725	811.0	0.5445344129554656	-141.0	-0.48380566801619435	46.0	29.0	-1.881021562930112	-22.33388635986174	1448.0	-16.0	-1.8191651640436075	
2102.0	-0.05479765378031186	1256.0	9.996425098159289	-0.75242670349028	2095.0	0.0	37231.0	3136.199951171875	0.725	811.0	0.5445344129554656	-141.0	-0.48380566801619435	46.0	8.0	1.146964367640312	-27.656895960750663	1786.0	-214.0	-1.5501611032318738	
2013.0	-0.28990468143293807	1231.0	10.295246142420478	0.32348780374492353	2115.0	0.0	37871.0	3155.731201171875	0.725	811.0	0.5445344129554656	-141.0	-0.48380566801619435	46.0	-137.0	4.756078911148494	-36.57511783705142	2355.0	-450.0	0.58560680843323	
2086.0	-1.8760014365342308	1257.0	10.018903965624556	-0.5774180796311643	2248.0	0.0	38511.0	3175.262451171875	0.725	811.0	0.5445344129554656	-141.0	-0.48380566801619435	46.0	-88.0	5.857164704083194	-8.080420260254206	500.0	-522.0	0.11867408495308172	
2079.0	0.5164884068088755	1256.0	9.982174014220885	-0.46989043082821635	2047.0	0.0	39151.0	3194.793701171875	0.74	817.0	0.5526315789473685	-137.0	-0.4534412955465587	31.0	-70.0	1.605750114696437	-34.36244154932493	2220.0	-244.0	-0.42034683378387383	
2016.0	-0.3726081467879384	1226.0	10.358232940253776	0.28777592673478647	2122.0	0.0	39791.0	3214.324951171875	0.74	817.0	0.5526315789473685	-137.0	-0.4534412955465587	31.0	-159.0	-2.1257072946933784	-13.9089344173147	899.0	0.0	1.1498472831093451	
2023.0	-1.659274700531498	1236.0	10.26300613732639	0.18866737574121278	2230.0	0.0	40431.0	3233.856201171875	0.74	817.0	0.5526315789473685	-137.0	-0.4534412955465587	31.0	-223.0	-1.2540143752867412	-8.801080012669	564.0	-57.0	2.182972781275796	
2013.0	0.683042100705334	1256.0	9.970876737200054	0.3267298834618978	2033.0	0.0	41071.0	3253.387451171875	0.73	813.0	0.5546558704453441	-136.0	-0.43724696356275305	23.0	-46.0	-2.003364428811745	-28.092886190897286	1822.0	-8.0	-0.7259188879945951	
2009.0	-1.969362693099633	1241.0	10.206587832893845	0.3531128285220613	2256.0	0.0	41711.0	3272.918701171875	0.73	813.0	0.5546558704453441	-136.0	-0.43724696356275305	23.0	-114.0	-2.737421624101545	-16.323096982916784	1058.0	40.0	0.4352038928377035	
2002.0	-2.1372233269155343	1251.0	10.087191117970358	0.4333836372830229	2270.0	0.0	42351.0	3292.449951171875	0.73	813.0	0.5546558704453441	-136.0	-0.43724696356275305	23.0	-112.0	-1.039914359993883	-33.478653339170606	2169.0	-71.0	0.23295936195891548	
1981.0	-2.0059568408941404	1248.0	10.118601624871678	0.6883365604740344	2259.0	0.0	42991.0	3311.981201171875	0.73	813.0	0.5546558704453441	-136.0	-0.43724696356275305	23.0	-71.0	-1.2846000917571496	-25.802982294080852	1671.0	-55.0	-0.31940775757330814	
1979.0	-2.339225609756381	1248.0	10.125058071980966	0.7092293872697664	2287.0	0.0	43631.0	3331.512451171875	0.7225	810.0	0.582995951417004	-122.0	-0.39878542510121456	4.0	-40.0	-2.1257072946933784	-38.9304735122852	2527.0	0.0	-0.9263616631572238	
1988.0	-2.62487165089182	1248.0	10.131882529865608	0.5980756810763458	2311.0	0.0	44271.0	3351.043701171875	0.7225	810.0	0.582995951417004	-122.0	-0.39878542510121456	4.0	-102.0	0.1529285823520416	-62.96350848846593	4083.0	-149.0	-0.21533402611528685	
1981.0	-2.0298834832443555	1249.0	10.106889770802514	0.6878630569691488	2261.0	0.0	44911.0	3370.574951171875	0.7225	810.0	0.582995951417004	-122.0	-0.39878542510121456	4.0	-111.0	-0.6728857623489831	-56.73343362512432	3680.0	-95.0	-0.014932924558746508	
2031.0	-0.06556650830034497	1246.0	10.110015836632172	0.10515910948096531	2096.0	0.0	45551.0	3390.106201171875	0.735	815.0	0.6012145748987854	-113.0	-0.37044534412955465	-10.0	-97.0	-0.48937146352653316	-39.12771156848968	2535.0	-107.0	-0.053698475206148844	
2031.0	-0.04151796361345429	1244.0	10.133917924368859	0.10587763668256792	2094.0	0.0	46191.0	3409.637451171875	0.735	815.0	0.6012145748987854	-113.0	-0.37044534412955465	-10.0	-55.0	-3.731457409389815	-0.7243885544701918	47.0	105.0	-0.31413355870720006	
2033.0	-0.06422317392424141	1235.0	10.244349274242527	0.08376282603476477	2096.0	0.0	46831.0	3429.168701171875	0.735	815.0	0.6012145748987854	-113.0	-0.37044534412955465	-10.0	-60.0	-9.099250649946477	-1.2333588495863068	94.0	456.0	-0.24250084336773667	
1903.0	-3.51160071214197	1296.0	9.554214500088735	1.6017514154104753	2385.0	0.0	47471.0	3448.699951171875	0.7175	808.0	0.6072874493927125	-110.0	-0.3765182186234818	-7.0	-97.0	-18.167915583422545	-0.8917061253579802	95.0	1049.0	0.32866157922516814	
2012.0	-0.9132176102416304	1267.0	9.868715166313141	0.3207722477057742	2167.0	0.0	48111.0	3468.231201171875	0.7175	808.0	0.6072874493927125	-110.0	-0.3765182186234818	-7.0	-185.0	-9.710964979354642	9.446141894985054	-600.0	496.0	1.7823546213435901	
2051.0	-0.029957213889944975	1247.0	10.0995167062436	-0.13565863560438893	2093.0	0.0	48751.0	3487.762451171875	0.7175	808.0	0.6072874493927125	-110.0	-0.3765182186234818	-7.0	-112.0	6.453586175256156	16.439657417173162	-1096.0	-561.0	0.7321424695223532	
2045.0	0.41188607838262314	1235.0	10.236226885881361	-0.05621684246240197	2056.0	0.0	49391.0	3507.293701171875	0.7175	808.0	0.6072874493927125	-110.0	-0.3765182186234818	-7.0	-50.0	4.4655146046796155	8.961375236767122	-604.0	-431.0	-0.2939983390854515	
2022.0	0.17247005280801375	1246.0	10.104148137944234	0.21585585605804916	2076.0	0.0	50031.0	3526.824951171875	0.71	805.0	0.6052631578947368	-111.0	-0.3825910931174089	-4.0	-119.0	0.6575929041137789	18.25461317372019	-1199.0	-182.0	0.8577034126946977	
2024.0	-0.052575447617865756	1237.0	10.2186457144039	0.19179896704081503	2095.0	0.0	50671.0	3546.356201171875	0.71	805.0	0.6052631578947368	-111.0	-0.3825910931174089	-4.0	-28.0	-3.1656216546872615	20.497884508513884	-1334.0	68.0	-0.5162118868467318	
2002.0	-0.9943520015922505	1249.0	10.088609364584478	0.4448407154685381	2174.0	0.0	51311.0	3565.887451171875	0.71	805.0	0.6052631578947368	-111.0	-0.3825910931174089	-4.0	-41.0	-0.6117143294081664	33.06744955718675	-2158.0	-99.0	-0.19103794880437935	
2001.0	-0.9004751715778546	1260.0	9.952482842214536	0.4551051460923676	2166.0	0.0	51951.0	3585.418701171875	0.7175	808.0	0.6032388663967612	-112.0	-0.3805668016194332	-5.0	-66.0	-3.2420859458632822	21.956279980878364	-1429.0	73.0	0.08146244688565946	
1999.0	-1.18650016742304	1263.0	9.921411829124562	0.47571986141428496	2190.0	0.0	52591.0	3604.949951171875	0.7175	808.0	0.6032388663967612	-112.0	-0.3805668016194332	-5.0	-77.0	0.3517357394096957	13.259178550466546	-873.0	-162.0	0.16328075282091525	
1998.0	-1.3262822534237404	1238.0	10.228917514768824	0.4925203470382475	2202.0	0.0	53231.0	3624.481201171875	0.7175	808.0	0.6032388663967612	-112.0	-0.3805668016194332	-5.0	-153.0	-8.900443492888822	35.8273144882169	-2317.0	443.0	1.5551428702159118	
2033.0	-0.8394619547410781	1248.0	10.101423573511237	0.07315192421197061	2161.0	0.0	53871.0	3644.012451171875	0.7175	808.0	0.6032388663967612	-112.0	-0.3805668016194332	-5.0	42.0	-8.19697201406943	37.2287418779741	-2408.0	397.0	-1.4230171692208728	
2034.0	-0.48068301748818304	1234.0	10.265031584515038	0.06796368103349121	2131.0	0.0	54511.0	3663.543701171875	0.715	807.0	0.5890688259109311	-119.0	-0.4493927125506073	29.0	-282.0	-10.750879339348526	27.80665893919806	-1792.0	564.0	3.4543747066238364	
2005.0	-0.09196251012885834	1267.0	9.851368034733214	0.4129752054728938	2098.0	0.0	55151.0	3683.074951171875	0.715	807.0	0.5890688259109311	-119.0	-0.4493927125506073	29.0	-258.0	-8.808686343477596	31.48555473374973	-2036.0	437.0	3.122896056774355	
2048.0	-0.27105578545124226	1272.0	9.799183359637682	-0.10793170993886722	2113.0	0.0	55791.0	3702.606201171875	0.715	807.0	0.5890688259109311	-119.0	-0.4493927125506073	29.0	195.0	0.10705000764642914	41.02673870965735	-2675.0	-146.0	-3.7327432005971506	
2058.0	0.8248276148917195	1265.0	9.863713870124336	-0.21616419343654786	2021.0	0.0	56431.0	3722.137451171875	0.71	805.0	0.5809716599190283	-123.0	-0.4311740890688259	20.0	-147.0	-5.933628995259214	22.728254424577376	-1473.0	249.0	1.332085367630767	
2041.0	0.1496634138783015	1238.0	10.20443662592539	-0.01128210322222728	2078.0	0.0	57071.0	3741.668701171875	0.71	805.0	0.5809716599190283	-123.0	-0.4311740890688259	20.0	-65.0	-13.044808074629149	8.813477572493898	-549.0	714.0	-0.0653100608563101	
2026.0	1.6367101856594446	1244.0	10.09958999451589	0.1822143234336592	1953.0	0.0	57711.0	3761.199951171875	0.71	805.0	0.5809716599190283	-123.0	-0.4311740890688259	20.0	-108.0	-5.398378957027069	-7.833261361933483	513.0	214.0	0.4280353470987871	
2072.0	1.3649615123620933	1228.0	10.305675045733134	-0.37059832974484885	1976.0	0.0	58351.0	3780.731201171875	0.71	805.0	0.576923076923077	-125.0	-0.46153846153846156	35.0	-169.0	-28.643523474537393	18.69597575319424	-1152.0	1734.0	1.6293412213956835	
2027.0	1.2695664548360361	1229.0	10.289978816936959	0.17030246980276217	1984.0	0.0	58991.0	3800.262451171875	0.71	805.0	0.576923076923077	-125.0	-0.46153846153846156	35.0	-49.0	-18.106744150481727	10.587222144704349	-651.0	1045.0	-0.2930843536642041	
2041.0	0.7859305704001043	1291.0	9.545437992391372	-0.018099404327689583	2024.0	0.0	59631.0	3819.793701171875	0.71	805.0	0.576923076923077	-125.0	-0.46153846153846156	35.0	-150.0	-10.674415048172504	-0.907314433465025	76.0	559.0	1.1417631300247177	
2071.0	1.5120553298906283	1193.0	10.729342512872353	-0.34860584945569484	1964.0	0.0	60271.0	3839.324951171875	0.71	805.0	0.576923076923077	-125.0	-0.46153846153846156	35.0	-100.0	4.067900290564307	10.338490006771709	-693.0	-405.0	0.48699699152083975	
2031.0	1.0007706988419605	1286.0	9.600879408005557	0.10563975297985605	2006.0	0.0	60911.0	3858.856201171875	0.7125	806.0	0.5870445344129555	-120.0	-0.45546558704453444	32.0	-201.0	-37.22281694448693	15.404355682418979	-916.0	2295.0	2.087448497747928	
2057.0	0.9957261724337949	1230.0	10.286902957665205	-0.1939432333392254	2007.0	0.0	61551.0	3878.387451171875	0.7125	806.0	0.5870445344129555	-120.0	-0.45546558704453444	32.0	-106.0	7.631136259366876	4.734901903711056	-338.0	-638.0	0.5230280124389827	
2001.0	0.7397357449595964	1279.0	9.687860210245356	0.4662148026183585	2028.0	0.0	62191.0	3897.918701171875	0.7125	806.0	0.5870445344129555	-120.0	-0.45546558704453444	32.0	178.0	34.28658816332773	-22.9424074252612	1395.0	-2381.0	-4.111578439758213	
2044.0	0.999733293171679	1197.0	10.687615031453618	-0.029262414631981953	2007.0	0.0	62831.0	3917.449951171875	0.6950000000000001	799.0	0.5809716599190283	-123.0	-0.5040485829959515	56.0	-12.0	35.51001682214406	-14.422673937317175	836.0	-2461.0	-1.1109292098350407	
2064.0	1.3985866479682196	1245.0	10.096760034917194	-0.2780548364364317	1973.0	0.0	63471.0	3936.981201171875	0.6950000000000001	799.0	0.5809716599190283	-123.0	-0.5040485829959515	56.0	-53.0	18.167915583422545	-0.26184718566993864	-40.0	-1327.0	-0.34019711233544736	
2038.0	0.6212442146831105	1275.0	9.74346908735867	0.020358932327739443	2038.0	0.0	64111.0	3956.512451171875	0.6950000000000001	799.0	0.5809716599190283	-123.0	-0.5040485829959515	56.0	-72.0	17.112708365193456	-4.083116691966715	211.0	-1258.0	-0.08686461789404187	
2054.0	-0.006514567877415528	1250.0	10.06282892654416	-0.17230254305150536	2091.0	0.0	64751.0	3976.043701171875	0.6950000000000001	799.0	0.5809716599190283	-123.0	-0.5040485829959515	56.0	-60.0	17.433858388132744	-0.21818112943525197	-41.0	-1279.0	-0.23234906616622608	
2057.0	1.028551685361299	1156.0	11.188501869463245	-0.17558299997398957	2005.0	0.0	65391.0	3995.574951171875	0.7175	808.0	0.5425101214574899	-142.0	-0.4676113360323887	38.0	80.0	37.146352653310906	-14.5816702881568	843.0	-2568.0	-2.5242116698909283	
2038.0	0.6137303287966471	1239.0	10.182556689188525	0.029065545505471913	2039.0	0.0	495.0	4015.106201171875	0.7175	808.0	0.5425101214574899	-142.0	-0.4676113360323887	38.0	-14.0	9.435693531120968	-0.10655871930007432	-27.0	-756.0	-0.93707909033862	
2032.0	0.376407116663266	1233.0	10.259759285374221	0.10052552193435804	2059.0	0.0	1135.0	4034.637451171875	0.7175	808.0	0.5425101214574899	-142.0	-0.4676113360323887	38.0	-36.0	3.1656216546872615	4.324396970445564	-299.0	-346.0	-0.5551908929624157	
2042.0	0.2558107295821695	1246.0	10.104882482026474	-0.024259905714251212	2069.0	0.0	1775.0	4054.168701171875	0.7275	812.0	0.5526315789473685	-137.0	-0.44129554655870445	25.0	-38.0	-7.417036244074018	12.22237955647071	-785.0	346.0	-0.44552209978591445	
2013.0	-0.01871012034740377	1252.0	10.033749870021529	0.3209698239077999	2092.0	0.0	2415.0	4073.699951171875	0.7275	812.0	0.5526315789473685	-137.0	-0.44129554655870445	25.0	-43.0	-4.81725034408931	6.088392732134363	-393.0	176.0	-0.4301395497386533	
2028.0	0.219599149506423	1250.0	10.055153045880397	0.1430580885572505	2072.0	0.0	3055.0	4093.231201171875	0.7275	812.0	0.5526315789473685	-137.0	-0.44129554655870445	25.0	-21.0	2.768007340571953	8.61843900132658	-577.0	-320.0	-0.7424177275254792	
2033.0	0.10155668981381427	1242.0	10.155668981381428	0.08364701881492333	2082.0	0.0	3695.0	4112.762451171875	0.7275	812.0	0.5465587044534413	-140.0	-0.4534412955465587	31.0	-64.0	2.8903502064535864	8.791516837552141	-589.0	-328.0	-0.08087415186385254	
2027.0	0.7329845858379784	1237.0	10.203220488559738	0.16320148454523722	2029.0	0.0	4335.0	4132.293701171875	0.7275	812.0	0.5465587044534413	-140.0	-0.4534412955465587	31.0	-40.0	-1.2693072335219453	12.068472390400792	-791.0	-56.0	-0.4163722041303638	
2025.0	0.1598398817902072	1252.0	10.03160722663977	0.17813415780852876	2077.0	0.0	4975.0	4151.824951171875	0.7275	812.0	0.5465587044534413	-140.0	-0.4534412955465587	31.0	-41.0	4.5113931793852275	3.208535298391644	-230.0	-434.0	-0.48962709139233035	
2022.0	0.17051961542121075	1262.0	9.909104399263933	0.2119354769105751	2076.0	0.0	5615.0	4171.356201171875	0.7275	812.0	0.5465587044534413	-140.0	-0.4534412955465587	31.0	-28.0	3.0738645052760365	-4.59151794657007	281.0	-340.0	-0.7671059113975712	
2036.0	0.1723650111800739	1247.0	10.093643975150247	0.04697002359070929	2076.0	0.0	6255.0	4190.887451171875	0.73	813.0	0.5425101214574899	-142.0	-0.46558704453441296	37.0	-48.0	5.872457562318398	-3.537585043629875	205.0	-523.0	-0.44967690920567116	
2036.0	0.2310235448571983	1254.0	10.007116390481734	0.04582605723411029	2071.0	0.0	6895.0	4210.418701171875	0.73	813.0	0.5425101214574899	-142.0	-0.46558704453441296	37.0	-45.0	-0.7952286282306164	4.681383515080815	-312.0	-87.0	-0.413520674592939	
2028.0	0.028064108368024032	1259.0	9.949267979659547	0.1390250368214495	2088.0	0.0	7535.0	4229.949951171875	0.73	813.0	0.5425101214574899	-142.0	-0.46558704453441296	37.0	-24.0	-0.48937146352653316	3.3496313411865684	-226.0	-107.0	-0.7490723531525044	
2045.0	0.38625280331895506	1250.0	10.053851760466932	-0.060120677721327204	2058.0	0.0	8175.0	4249.481201171875	0.73	813.0	0.5425101214574899	-142.0	-0.4817813765182186	45.0	-48.0	2.1257072946933784	0.08831062547006809	-21.0	-278.0	-0.4134179525146718	
2046.0	0.4463753693725199	1245.0	10.113727413442469	-0.0703701317723652	2053.0	0.0	8815.0	4269.012451171875	0.73	813.0	0.5425101214574899	-142.0	-0.4817813765182186	45.0	-38.0	3.6244074017433863	-0.7083712087324733	27.0	-376.0	-0.5748296074379462	
2040.0	0.30341780093657356	1246.0	10.103684855562122	2.885980121744569E-4	2065.0	0.0	9455.0	4288.543701171875	0.73	813.0	0.5425101214574899	-142.0	-0.4817813765182186	45.0	-37.0	2.1562930111637866	-0.9417325809464389	46.0	-280.0	-0.5925077048182109	
2045.0	0.32747236730515544	1244.0	10.128189111467927	-0.059221735061445346	2063.0	0.0	10095.0	4308.074951171875	0.73	813.0	0.5425101214574899	-142.0	-0.4817813765182186	45.0	-39.0	4.129071723505123	-2.6820594659817423	154.0	-409.0	-0.5792220063523141	
2049.0	0.4586470593983304	1242.0	10.15042022554732	-0.10565813694326306	2052.0	0.0	10735.0	4327.606201171875	0.7375	816.0	0.5364372469635628	-145.0	-0.4898785425101215	49.0	-56.0	0.9787429270530663	-0.32846414758327275	9.0	-203.0	-0.29482983098020593	
2049.0	0.47006182005839975	1246.0	10.101420101078068	-0.10652399182604741	2051.0	0.0	11375.0	4347.137451171875	0.7375	816.0	0.5364372469635628	-145.0	-0.4898785425101215	49.0	-57.0	0.6881786205841872	-0.2554733237043389	5.0	-184.0	-0.27875543908329176	
2035.0	0.10082768446643962	1248.0	10.082768446643962	0.0580853325245316	2082.0	0.0	12015.0	4366.668701171875	0.7375	816.0	0.5364372469635628	-145.0	-0.4898785425101215	49.0	-62.0	1.9727787123413367	-1.4304112263567137	78.0	-268.0	-0.21378239981919092	
2031.0	0.04118911475056078	1249.0	10.071292427437031	0.10545219752757151	2087.0	0.0	12655.0	4386.199951171875	0.73	813.0	0.5404858299595142	-143.0	-0.4959514170040486	52.0	-62.0	2.844471631747974	-1.0653769755535987	52.0	-325.0	-0.21013205731115975	
2032.0	-0.006175356266831175	1247.0	10.096750087602597	0.09343951324962457	2091.0	0.0	13295.0	4405.731201171875	0.73	813.0	0.5404858299595142	-143.0	-0.4959514170040486	52.0	-60.0	4.00672885762349	-1.1423171786647195	54.0	-401.0	-0.2415904266585208	
2032.0	0.0175074814100339	1248.0	10.084081474336724	0.09342296936107582	2089.0	0.0	13935.0	4425.262451171875	0.73	813.0	0.5404858299595142	-143.0	-0.4959514170040486	52.0	-63.0	2.110414436458174	-1.082313185611943	55.0	-277.0	-0.1949569357536183	
2032.0	0.0175074814100339	1248.0	10.084081474336724	0.09342296936107582	2089.0	0.0	14575.0	4444.793701171875	0.74	817.0	0.5384615384615384	-144.0	-0.4959514170040486	52.0	-74.0	2.263343018810216	-1.1208788633102222	57.0	-287.0	-0.02655327229122713	
2032.0	-0.01783392160025095	1245.0	10.12136974473681	0.09381532073897468	2092.0	0.0	15215.0	4464.324951171875	0.74	817.0	0.5384615384615384	-144.0	-0.4959514170040486	52.0	-59.0	1.3916500994035788	-1.0837131905525137	57.0	-230.0	-0.2563488704355236	
2034.0	-0.029977687607694994	1247.0	10.097469334468597	0.06911948933136725	2093.0	0.0	15855.0	4483.856201171875	0.74	817.0	0.5384615384615384	-144.0	-0.4959514170040486	52.0	-55.0	0.16822144058724578	-1.1110707735191738	62.0	-150.0	-0.3180003808976899	
2031.0	-0.029981300616709713	1247.0	10.097108033567126	0.1052568054965007	2093.0	0.0	16495.0	4503.387451171875	0.74	817.0	0.5384615384615384	-144.0	-0.4959514170040486	52.0	-73.0	-0.29056430646887904	-0.9262950905310334	51.0	-120.0	-0.03995191822156015	
2033.0	0.005850120412952381	1246.0	10.108821565104762	0.08175300479538142	2090.0	0.0	17135.0	4522.918701171875	0.7425	818.0	0.5303643724696356	-148.0	-0.5080971659919028	58.0	-46.0	-0.5352500382321457	-1.0200310192734434	58.0	-104.0	-0.4551903362783567	
2034.0	0.0173879877460352	1249.0	10.072132107936854	0.0690864015542697	2089.0	0.0	17775.0	4542.449951171875	0.7425	818.0	0.5303643724696356	-148.0	-0.5080971659919028	58.0	-49.0	-0.48937146352653316	-0.9761841348054977	55.0	-107.0	-0.4087184164593025	
2033.0	0.02941105575314229	1248.0	10.083962718171373	0.08149143721011551	2088.0	0.0	18415.0	4561.981201171875	0.7425	818.0	0.5303643724696356	-148.0	-0.5080971659919028	58.0	-48.0	-0.7034714788193914	-0.9674675610145813	55.0	-93.0	-0.42397573437951824	
2033.0	-0.006174151930492935	1247.0	10.09687052123642	0.0813937411945801	2091.0	0.0	19055.0	4581.512451171875	0.735	815.0	0.5303643724696356	-148.0	-0.5141700404858299	61.0	-60.0	-0.33644288117449156	-0.907084836807838	50.0	-117.0	-0.23923810323995198	
2032.0	-0.018077726273601324	1247.0	10.096989277401773	0.0933252733455404	2092.0	0.0	19695.0	4601.043701171875	0.735	815.0	0.5303643724696356	-148.0	-0.5141700404858299	61.0	-58.0	-0.24468573176326658	-0.9873514508736528	55.0	-123.0	-0.2707297366968599	
2034.0	0.017631792419385575	1247.0	10.096512575271891	0.06957644894770396	2089.0	0.0	20335.0	4620.574951171875	0.735	815.0	0.5303643724696356	-148.0	-0.5141700404858299	61.0	-52.0	-0.8869857776418414	-1.1145485491570635	65.0	-81.0	-0.36406860962844345	
2034.0	0.05321700010302081	1248.0	10.083604772206844	0.06967414496323937	2086.0	0.0	20975.0	4640.106201171875	0.735	815.0	0.5303643724696356	-148.0	-0.5141700404858299	61.0	-55.0	0.382321455880104	-0.981207520493108	53.0	-164.0	-0.31670174836742926	
2032.0	0.0056051114032637656	1248.0	10.084320664135902	0.09330872945699165	2090.0	0.0	21615.0	4659.637451171875	0.75	821.0	0.5242914979757085	-151.0	-0.5	54.0	-61.0	0.4434928888209207	-0.9691939992975608	52.0	-168.0	-0.22451471120672428	
2032.0	0.01738557907335872	1249.0	10.071891240669206	0.09317794566435868	2089.0	0.0	22255.0	4679.168701171875	0.75	821.0	0.5242914979757085	-151.0	-0.5	54.0	-42.0	-0.6728857623489831	-0.8601053146850344	48.0	-95.0	-0.5149690138649722	
2033.0	-0.00629605426716813	1248.0	10.0846802875689	0.08114871749786298	2091.0	0.0	22895.0	4698.699951171875	0.75	821.0	0.5242914979757085	-151.0	-0.5	54.0	-65.0	0.4434928888209207	-1.092853403781733	60.0	-168.0	-0.1643733706190664	
2035.0	0.005608724412278485	1248.0	10.084681965037372	0.05717141329185818	2090.0	0.0	23535.0	4718.231201171875	0.735	815.0	0.5242914979757085	-151.0	-0.5040485829959515	56.0	-60.0	0.9175714941122497	-0.8803368421948343	45.0	-199.0	-0.2389706232938219	
2033.0	0.01750868574637214	1248.0	10.084201907970549	0.08137719730603134	2089.0	0.0	24175.0	4737.762451171875	0.735	815.0	0.5242914979757085	-151.0	-0.5040485829959515	56.0	-75.0	0.18351429882244993	-0.9148017759777306	49.0	-151.0	-0.009148017759777305	
2035.0	0.005608724412278485	1248.0	10.084681965037372	0.05717141329185818	2090.0	0.0	24815.0	4757.293701171875	0.735	815.0	0.5242914979757085	-151.0	-0.5040485829959515	56.0	-65.0	0.16822144058724578	-1.0203208035732592	56.0	-150.0	-0.16364804461698168	
2032.0	-0.006175356266831175	1247.0	10.096750087602597	0.09343951324962457	2091.0	0.0	25455.0	4776.824951171875	0.74	817.0	0.5161943319838057	-155.0	-0.4959514170040486	52.0	-57.0	0.33644288117449156	-1.1027251064977412	61.0	-161.0	-0.28722795691122577	
2031.0	0.005725809403600721	1247.0	10.096390464169597	0.10559952520875324	2090.0	0.0	26095.0	4796.356201171875	0.74	817.0	0.5161943319838057	-155.0	-0.4959514170040486	52.0	-58.0	0.12234286588163329	-1.002031126811855	55.0	-147.0	-0.27087653345624196	
2033.0	0.017752490419722516	1246.0	10.108582375305586	0.08186724469946559	2089.0	0.0	26735.0	4815.887451171875	0.74	817.0	0.5161943319838057	-155.0	-0.4959514170040486	52.0	-65.0	-0.1988071570576541	-0.9133568627528234	50.0	-126.0	-0.1625784052087773	
2035.0	0.005730626748953679	1247.0	10.096872198704892	0.05741643698857529	2090.0	0.0	27375.0	4835.418701171875	0.74	817.0	0.5161943319838057	-155.0	-0.4959514170040486	52.0	-57.0	0.015292858235204161	-1.0129768359832865	56.0	-140.0	-0.28633047420608115	
2034.0	0.005851324749290621	1246.0	10.108941998738585	0.06970723274033691	2090.0	0.0	28015.0	4854.949951171875	0.7475	820.0	0.5182186234817814	-154.0	-0.4939271255060729	51.0	-54.0	0.10705000764642914	-0.9085214907910022	49.0	-146.0	-0.33131937172853304	
2032.0	-0.00629725860350637	1248.0	10.084559853935078	0.09319448955290746	2091.0	0.0	28655.0	4874.481201171875	0.7475	820.0	0.5182186234817814	-154.0	-0.4939271255060729	51.0	-51.0	-0.1988071570576541	-0.9881124039105049	55.0	-126.0	-0.3781487318341028	
2034.0	0.01750989008271038	1248.0	10.084322341604372	0.06933142525098684	2089.0	0.0	29295.0	4894.012451171875	0.7475	820.0	0.5182186234817814	-154.0	-0.4939271255060729	51.0	-64.0	-0.04587857470561248	-0.8270357000178755	44.0	-136.0	-0.17705967723955274	
2032.0	0.029531753753479245	1247.0	10.096032518205067	0.0937822329618771	2088.0	0.0	29935.0	4913.543701171875	0.7475	820.0	0.5242914979757085	-151.0	-0.48785425101214575	48.0	-67.0	0.10705000764642914	-1.0028003390904503	55.0	-146.0	-0.13278387265590375	
2033.0	0.02941105575314229	1248.0	10.083962718171373	0.08149143721011551	2088.0	0.0	30575.0	4933.074951171875	0.7475	820.0	0.5242914979757085	-151.0	-0.48785425101214575	48.0	-67.0	0.5811286129377581	-1.190949406128056	66.0	-177.0	-0.1346653633262798	
2032.0	0.00572701373993896	1247.0	10.096510897803421	0.09355375315370876	2090.0	0.0	31215.0	4952.606201171875	0.7475	820.0	0.5242914979757085	-151.0	-0.48785425101214575	48.0	-53.0	0.13763572411683744	-0.8019263919296147	42.0	-148.0	-0.34559790439804405	
2031.0	-0.006176560603169415	1247.0	10.096629653968773	0.10548528530466905	2091.0	0.0	31855.0	4972.137451171875	0.74	817.0	0.5161943319838057	-155.0	-0.47975708502024295	44.0	-68.0	-0.36702859764489987	-0.9993732313109432	56.0	-115.0	-0.11740511791998377	
2034.0	-0.018075317600924845	1247.0	10.097230144669421	0.06923372923545143	2092.0	0.0	32495.0	4991.668701171875	0.74	817.0	0.5161943319838057	-155.0	-0.47975708502024295	44.0	-61.0	0.13763572411683744	-1.0338644900842535	57.0	-148.0	-0.2251614161145912	
2035.0	0.01751109441904862	1248.0	10.084442775238196	0.057285653195942365	2089.0	0.0	33135.0	5011.199951171875	0.74	817.0	0.5161943319838057	-155.0	-0.47975708502024295	44.0	-51.0	0.04587857470561248	-0.813330324771506	43.0	-142.0	-0.3764009110427128	
2033.0	0.02941105575314229	1248.0	10.083962718171373	0.08149143721011551	2088.0	0.0	33775.0	5030.731201171875	0.74	817.0	0.5161943319838057	-155.0	-0.47975708502024295	44.0	-63.0	0.16822144058724578	-0.958491101331173	52.0	-150.0	-0.1937187149108106	
2031.0	0.005725809403600721	1247.0	10.096390464169597	0.10559952520875324	2090.0	0.0	34415.0	5050.262451171875	0.7375	816.0	0.5242914979757085	-151.0	-0.4817813765182186	45.0	-57.0	0.764642911760208	-1.0275671302100768	55.0	-189.0	-0.28647637714834906	
2034.0	0.005607520075940245	1248.0	10.084561531403548	0.06921718534690266	2090.0	0.0	35055.0	5069.793701171875	0.7375	816.0	0.5242914979757085	-151.0	-0.4817813765182186	45.0	-69.0	1.6210429729316411	-1.063660861322798	55.0	-245.0	-0.1027035105619774	
2032.0	0.00572701373993896	1247.0	10.096510897803421	0.09355375315370876	2090.0	0.0	35695.0	5089.324951171875	0.7375	816.0	0.5242914979757085	-151.0	-0.4817813765182186	45.0	-82.0	2.202171585869399	-1.027375421720677	51.0	-283.0	0.09713763138966756	
2033.0	0.01750868574637214	1248.0	10.084201907970549	0.08137719730603134	2089.0	0.0	36335.0	5108.856201171875	0.7525000000000001	822.0	0.5141700404858299	-156.0	-0.4858299595141701	47.0	-88.0	2.293928735280624	-0.8473973879025517	39.0	-289.0	0.1910043136765983	
2035.0	0.005608724412278485	1248.0	10.084681965037372	0.05717141329185818	2090.0	0.0	36975.0	5128.387451171875	0.7525000000000001	822.0	0.5141700404858299	-156.0	-0.4858299595141701	47.0	-96.0	3.37972166998012	-0.8766714876884161	38.0	-360.0	0.3134674419437389	
2035.0	0.3986307393090435	1246.0	10.101169168999593	0.061431377520070274	2057.0	0.0	37615.0	5147.918701171875	0.7525000000000001	822.0	0.5141700404858299	-156.0	-0.4858299595141701	47.0	-98.0	4.205536014681145	-1.7251852906630307	91.0	-414.0	0.33567127123024254	
2051.0	0.4937470664079413	1247.0	10.088992355079844	-0.13063207982468514	2049.0	0.0	38255.0	5167.449951171875	0.7525000000000001	822.0	0.5141700404858299	-156.0	-0.4858299595141701	47.0	-39.0	3.226793087628078	-13.550895896217588	863.0	-350.0	-0.6879103706546725	
2070.0	1.0288889897563236	1251.0	10.031756118489486	-0.35534104797361077	2004.0	0.0	38895.0	5186.981201171875	0.74	817.0	0.52834008097166	-149.0	-0.46356275303643724	36.0	-68.0	1.896314421165316	-10.518273628398045	669.0	-263.0	-0.2125941218908548	
2038.0	0.6844131348172169	1245.0	10.107980148388354	0.028280842749674212	2033.0	0.0	39535.0	5206.512451171875	0.74	817.0	0.52834008097166	-149.0	-0.46356275303643724	36.0	-99.0	1.5598715399908245	-16.969472114846962	1089.0	-241.0	0.19857288664652814	
2068.0	0.6959859279041085	1248.0	10.074783266601331	-0.3337131500877274	2032.0	0.0	40175.0	5226.043701171875	0.74	817.0	0.52834008097166	-149.0	-0.46356275303643724	36.0	-64.0	-0.10705000764642914	-1.2706297009589704	73.0	-132.0	-0.18149561724896368	
2066.0	0.43535040244924084	1238.0	10.201706911590751	-0.30968464690031905	2054.0	0.0	40815.0	5245.574951171875	0.74	817.0	0.5323886639676113	-147.0	-0.45546558704453444	32.0	-81.0	0.1529285823520416	-6.805311288260577	432.0	-149.0	0.024013789066143668	
2044.0	1.088247624708705	1252.0	10.015238661346672	-0.04182479871875061	1999.0	0.0	41455.0	5265.106201171875	0.74	817.0	0.5323886639676113	-147.0	-0.45546558704453444	32.0	-53.0	-0.3058571647040832	2.1689080260605182	-150.0	-119.0	-0.31588956021814274	
2069.0	0.3025994103336561	1253.0	10.021845795270377	-0.35075395746113536	2065.0	0.0	42095.0	5284.637451171875	0.74	817.0	0.5323886639676113	-147.0	-0.45546558704453444	32.0	-35.0	0.0764642911760208	5.832368312319233	-389.0	-144.0	-0.555455663201804	
2018.0	0.5646339340026996	1251.0	10.034821971698529	0.2665837426294193	2043.0	0.0	42735.0	5304.168701171875	0.75	821.0	0.5242914979757085	-151.0	-0.4676113360323887	38.0	-29.0	0.7187643370545955	-3.69767982648088	229.0	-186.0	-0.7428230465385546	
2080.0	0.8742921253683692	1250.0	10.048260155884535	-0.4770388635804328	2017.0	0.0	43375.0	5323.699951171875	0.75	821.0	0.5242914979757085	-151.0	-0.4676113360323887	38.0	19.0	-0.29056430646887904	-3.3423318856823823	209.0	-120.0	-1.475804782720565	
2060.0	-0.1607505426006972	1246.0	10.115421930406468	-0.24508219934799805	2104.0	0.0	44015.0	5343.231201171875	0.75	821.0	0.5242914979757085	-151.0	-0.4676113360323887	38.0	-91.0	-0.3976143141153082	-2.939648365863197	182.0	-113.0	0.2161152548713665	
2058.0	-0.06541208888253738	1245.0	10.125457778412931	-0.21983171230851853	2096.0	0.0	44655.0	5362.762451171875	0.75	821.0	0.5242914979757085	-151.0	-0.4676113360323887	38.0	-75.0	-1.91160727940052	-1.2001423520260939	73.0	-14.0	-0.012001423520260937	
2042.0	0.005129545419945383	1252.0	10.036764065804064	-0.028129085880321703	2090.0	0.0	45295.0	5382.293701171875	0.7325	814.0	0.5364372469635628	-145.0	-0.45951417004048584	34.0	-52.0	0.2752714482336749	1.7459201541623184	-124.0	-157.0	-0.33546392259524965	
2045.0	-0.16028099829907003	1242.0	10.162376360569189	-0.06341552373546236	2104.0	0.0	45935.0	5401.824951171875	0.7325	814.0	0.5364372469635628	-145.0	-0.45951417004048584	34.0	-45.0	-1.8504358464597035	-1.690168825912083	105.0	-18.0	-0.477236198002868	
2042.0	0.2672254902422389	1250.0	10.055882357557223	-0.02512576059703553	2068.0	0.0	46575.0	5421.356201171875	0.7325	814.0	0.5364372469635628	-145.0	-0.45951417004048584	34.0	-26.0	-0.382321455880104	-3.084094210078272	192.0	-114.0	-0.7827206413489031	
2011.0	0.3163823662196116	1237.0	10.209665193389728	0.35193544078300276	2064.0	0.0	47215.0	5440.887451171875	0.7275	812.0	0.5445344129554656	-141.0	-0.4493927125506073	29.0	-1.0	1.0246215017586788	-4.428510272185186	276.0	-206.0	-1.179776893423095	
2026.0	-0.04140208295847027	1243.0	10.145505989867258	0.16635152065450745	2094.0	0.0	47855.0	5460.418701171875	0.7275	812.0	0.5445344129554656	-141.0	-0.4493927125506073	29.0	-38.0	-1.3457715246979662	0.5209236941156219	-40.0	-51.0	-0.5625366584094653	
2033.0	-0.3513428821268271	1247.0	10.103807025412532	0.07808078397613898	2120.0	0.0	48495.0	5479.949951171875	0.7275	812.0	0.5445344129554656	-141.0	-0.4493927125506073	29.0	-84.0	-1.330478666462762	3.0356908576921793	-204.0	-52.0	0.16845726150004595	
1998.0	-0.22155608485427047	1256.0	9.987248657430094	0.49873423157716756	2109.0	0.0	49135.0	5499.481201171875	0.7275	812.0	0.5445344129554656	-141.0	-0.4493927125506073	29.0	-100.0	2.82917877351277	-5.038819033083559	310.0	-324.0	0.33322390112228706	
2016.0	0.46965636994921234	1249.0	10.06087509015933	0.29025141490026907	2051.0	0.0	49775.0	5519.012451171875	0.73	813.0	0.5506072874493927	-138.0	-0.44534412955465585	27.0	-84.0	3.3950145282153237	-2.1212795628390775	119.0	-361.0	0.1168875572947334	
2038.0	-0.4458244064792459	1241.0	10.179464113980174	0.018408146648545926	2128.0	0.0	50415.0	5538.543701171875	0.73	813.0	0.5506072874493927	-138.0	-0.44534412955465585	27.0	-123.0	3.1809145129224654	4.51038619191367	-312.0	-347.0	0.7816390775091322	
2025.0	0.028426202369034897	1256.0	9.985477379760633	0.17589742407673434	2088.0	0.0	51055.0	5558.074951171875	0.73	813.0	0.5506072874493927	-138.0	-0.44534412955465585	27.0	-54.0	0.6117143294081664	6.0233752425888945	-403.0	-179.0	-0.2620004043947341	
1992.0	-0.5891958553787473	1245.0	10.128033509744323	0.5701626875447134	2140.0	0.0	51695.0	5577.606201171875	0.7275	812.0	0.5303643724696356	-148.0	-0.46356275303643724	36.0	-74.0	0.9328643523474538	1.4855329570408875	-109.0	-200.0	-4.891540877160292E-4	
1982.0	0.20678806367136765	1257.0	9.964520652851052	0.6953341973081925	2073.0	0.0	52335.0	5597.137451171875	0.7275	812.0	0.5303643724696356	-148.0	-0.46356275303643724	36.0	-101.0	-1.8504358464597035	7.837279826941994	-515.0	-18.0	0.4773293733806675	
2064.0	-0.23155043361258923	1241.0	10.178289972074417	-0.29272560850909535	2110.0	0.0	52975.0	5616.668701171875	0.7275	812.0	0.5303643724696356	-148.0	-0.46356275303643724	36.0	-147.0	-5.061936075852578	14.91075052248912	-967.0	192.0	1.2539103286098845	
2033.0	-0.363732861480298	1251.0	10.055285280541632	0.0769864492851863	2121.0	0.0	53615.0	5636.199951171875	0.7225	810.0	0.5506072874493927	-138.0	-0.46153846153846156	35.0	-93.0	-1.1010857929346995	12.192038839756645	-800.0	-67.0	0.39812109424381475	
2039.0	0.05334492412138719	1247.0	10.096397174043481	0.009690308384734087	2086.0	0.0	54255.0	5655.731201171875	0.7225	810.0	0.5506072874493927	-138.0	-0.46153846153846156	35.0	-36.0	-0.6270071876433706	0.23101077055757818	-23.0	-98.0	-0.5961247549612956	
2014.0	-0.12461122270524494	1242.0	10.157925348523127	0.3103461296831691	2101.0	0.0	54895.0	5675.262451171875	0.7225	810.0	0.5506072874493927	-138.0	-0.46153846153846156	35.0	-45.0	-1.91160727940052	5.633496134068142	-371.0	-14.0	-0.40399954840306573	
2024.0	-0.6843762766700848	1245.0	10.13380090442009	0.18378406255061663	2148.0	0.0	55535.0	5694.793701171875	0.7225	810.0	0.5506072874493927	-138.0	-0.46153846153846156	35.0	-59.0	-1.7128001223428662	5.546493075955575	-366.0	-27.0	-0.19004680777044275	
2006.0	-0.3151806798409483	1243.0	10.148598682571837	0.404639443961461	2117.0	0.0	56175.0	5714.324951171875	0.72	809.0	0.5587044534412956	-134.0	-0.46963562753036436	39.0	-63.0	-0.13763572411683744	-5.575851992974719	353.0	-130.0	-0.23989232382724607	
1999.0	0.017102031300846532	1251.0	10.043536463417986	0.49019837608739236	2089.0	0.0	56815.0	5733.856201171875	0.72	809.0	0.5587044534412956	-134.0	-0.46963562753036436	39.0	-80.0	0.21410001529285827	-6.438467411894378	408.0	-153.0	0.01233774417168075	
2026.0	-0.13637723833928103	1241.0	10.171799975595707	0.16592764881526828	2102.0	0.0	57455.0	5753.387451171875	0.72	809.0	0.5587044534412956	-134.0	-0.46963562753036436	39.0	-83.0	-1.0246215017586788	0.31660612069179317	-28.0	-72.0	0.12592193047191716	
2014.0	-0.5540717616423716	1250.0	10.069014311953321	0.30427330356240173	2137.0	0.0	58095.0	5772.918701171875	0.725	811.0	0.5526315789473685	-137.0	-0.46963562753036436	39.0	-69.0	-0.7034714788193914	4.0434221448871694	-271.0	-93.0	-0.051632680499877744	
2035.0	-0.20924344739296002	1253.0	10.02803621308495	0.05388997653475738	2108.0	0.0	58735.0	5792.449951171875	0.725	811.0	0.5526315789473685	-137.0	-0.46963562753036436	39.0	-64.0	0.33644288117449156	-0.8884691615612862	47.0	-161.0	-0.17767401185498682	
2006.0	-0.6376417910538189	1252.0	10.045344704141929	0.3993497532807341	2144.0	0.0	59375.0	5811.981201171875	0.725	811.0	0.5526315789473685	-137.0	-0.46963562753036436	39.0	-68.0	-0.7952286282306164	0.15592565749783927	-18.0	-87.0	-0.10585212903189595	
2024.0	-0.1253305933619137	1248.0	10.08598828285625	0.18841826695242153	2101.0	0.0	60015.0	5831.512451171875	0.725	811.0	0.5526315789473685	-137.0	-0.46963562753036436	39.0	-70.0	-1.055207218229087	-1.9565211899912354	120.0	-70.0	-0.09628763019053689	
2012.0	-0.6491712280325339	1249.0	10.082877196746603	0.3276959521365344	2145.0	0.0	60655.0	5851.043701171875	0.7125	806.0	0.5546558704453441	-136.0	-0.4817813765182186	45.0	-61.0	-1.3457715246979662	-0.9130112899125308	53.0	-51.0	-0.22395288411287398	
2024.0	-0.4470602905547331	1251.0	10.055875706431452	0.18459871845199738	2128.0	0.0	61295.0	5870.574951171875	0.7125	806.0	0.5546558704453441	-136.0	-0.4817813765182186	45.0	-76.0	-1.2998929499923537	-3.470345686884411	219.0	-54.0	-0.019358973210719208	
2013.0	-0.5894143689889947	1247.0	10.106182148719583	0.31671142699534505	2140.0	0.0	61935.0	5890.106201171875	0.7125	806.0	0.5546558704453441	-136.0	-0.4817813765182186	45.0	-53.0	-0.42820003058571654	-3.1479246901688795	196.0	-111.0	-0.3690578873804367	
2022.0	-0.5064526469245851	1250.0	10.069021021827206	0.2083640867383826	2133.0	0.0	62575.0	5909.637451171875	0.72	809.0	0.548582995951417	-139.0	-0.4858299595141701	47.0	-48.0	-0.061171432940816645	-7.437674824849075	474.0	-135.0	-0.48867780701786323	
2031.0	-0.03022510529006009	1249.0	10.07272756623209	0.10476675810306645	2093.0	0.0	63215.0	5929.168701171875	0.72	809.0	0.548582995951417	-139.0	-0.4858299595141701	47.0	-56.0	-0.1988071570576541	-6.6797425524497305	425.0	-126.0	-0.35834261502887055	
2022.0	-0.38742894685688367	1250.0	10.066629123835444	0.20950648577922437	2123.0	0.0	63855.0	5948.699951171875	0.72	809.0	0.548582995951417	-139.0	-0.4858299595141701	47.0	-64.0	-0.4434928888209207	-2.2569195342398145	138.0	-110.0	-0.1913585155817721	
2034.0	0.17211879783404704	1249.0	10.069022640547564	0.070571520307364	2076.0	0.0	64495.0	5968.231201171875	0.73	813.0	0.5404858299595142	-143.0	-0.4736842105263158	41.0	-74.0	-0.45878574705612485	0.11078728929861811	-16.0	-109.0	-0.014236610765138725	
2019.0	-0.3514816451722376	1248.0	10.08993072087148	0.24647656905004459	2120.0	0.0	65135.0	5987.762451171875	0.73	813.0	0.5404858299595142	-143.0	-0.4736842105263158	41.0	-60.0	0.4434928888209207	0.9381675710955636	-72.0	-168.0	-0.22078557916091796	
2024.0	-0.22054955341607485	1248.0	10.08790180124966	0.18750434771974814	2109.0	0.0	239.0	6007.293701171875	0.73	813.0	0.5404858299595142	-143.0	-0.4736842105263158	41.0	-57.0	0.0764642911760208	-0.21562648632696302	4.0	-144.0	-0.278356970709518	
2027.0	-0.14900981802976404	1247.0	10.099018197023593	0.15229749467583686	2103.0	0.0	879.0	6026.824951171875	0.73	813.0	0.5404858299595142	-143.0	-0.4736842105263158	41.0	-61.0	0.10705000764642914	-2.0477680974606387	123.0	-146.0	-0.23530045218835507	
2023.0	-0.29184307545635874	1247.0	10.101406740078414	0.19910970404700468	2115.0	0.0	1519.0	6046.356201171875	0.715	807.0	0.5445344129554656	-141.0	-0.4858299595141701	47.0	-74.0	-0.12234286588163329	-2.394344232131705	146.0	-131.0	-0.03928792597944196	
2033.0	0.02941105575314229	1248.0	10.083962718171373	0.08149143721011551	2088.0	0.0	2159.0	6065.887451171875	0.715	807.0	0.5445344129554656	-141.0	-0.4858299595141701	47.0	-68.0	-0.6575929041137789	-0.9416096887520831	53.0	-96.0	-0.11682748249439517	
2032.0	-0.01819962861027652	1248.0	10.084799043734254	0.09308024964882329	2092.0	0.0	2799.0	6085.418701171875	0.715	807.0	0.5445344129554656	-141.0	-0.4858299595141701	47.0	-66.0	-0.749350053525004	-0.9068714891528575	51.0	-90.0	-0.14716906781465272	
2031.0	0.005725809403600721	1247.0	10.096390464169597	0.10559952520875324	2090.0	0.0	3439.0	6104.949951171875	0.72	809.0	0.5425101214574899	-142.0	-0.46963562753036436	39.0	-65.0	-1.3916500994035788	-0.8656479159536663	50.0	-48.0	-0.16210131574078573	
2031.0	0.005847711740275902	1246.0	10.108580697837114	0.10584454890547038	2090.0	0.0	4079.0	6124.481201171875	0.72	809.0	0.5425101214574899	-142.0	-0.46963562753036436	39.0	-66.0	-0.4434928888209207	-0.9806273956895151	55.0	-110.0	-0.14790662688001932	
2032.0	0.029531753753479245	1247.0	10.096032518205067	0.0937822329618771	2088.0	0.0	4719.0	6144.012451171875	0.72	809.0	0.5425101214574899	-142.0	-0.46963562753036436	39.0	-55.0	0.16822144058724578	-0.8957408221272954	48.0	-150.0	-0.3158470813837711	
2033.0	0.017630588083047335	1247.0	10.096392141638068	0.08162222100274845	2089.0	0.0	5359.0	6163.543701171875	0.72	809.0	0.5425101214574899	-142.0	-0.46963562753036436	39.0	-59.0	-0.6881786205841872	-0.9390055169812125	53.0	-94.0	-0.25490179369981064	
2032.0	-0.00629725860350637	1248.0	10.084559853935078	0.09319448955290746	2091.0	0.0	5999.0	6183.074951171875	0.7275	812.0	0.5526315789473685	-137.0	-0.44534412955465585	27.0	-66.0	0.13763572411683744	-1.0653930591798242	59.0	-148.0	-0.1487542835149224	
2033.0	0.005606315739602005	1248.0	10.084441097769725	0.08126295740194717	2090.0	0.0	6639.0	6202.606201171875	0.7275	812.0	0.5526315789473685	-137.0	-0.44534412955465585	27.0	-69.0	0.04587857470561248	-1.1544676935584028	65.0	-142.0	-0.10361157888433346	
2034.0	0.01750989008271038	1248.0	10.084322341604372	0.06933142525098684	2089.0	0.0	7279.0	6222.137451171875	0.7275	812.0	0.5526315789473685	-137.0	-0.44534412955465585	27.0	-69.0	-0.12234286588163329	-0.9939324006163377	55.0	-131.0	-0.10200622595491281	
2032.0	0.029531753753479245	1247.0	10.096032518205067	0.0937822329618771	2088.0	0.0	7919.0	6241.668701171875	0.725	811.0	0.5344129554655871	-146.0	-0.45951417004048584	34.0	-73.0	-0.09175714941122497	-0.9650080032916375	53.0	-133.0	-0.040339047349166185	
2031.0	0.005847711740275902	1246.0	10.108580697837114	0.10584454890547038	2090.0	0.0	8559.0	6261.199951171875	0.725	811.0	0.5344129554655871	-146.0	-0.45951417004048584	34.0	-65.0	0.015292858235204161	-1.0603464043734583	59.0	-140.0	-0.16404830062498366	
2031.0	0.005725809403600721	1247.0	10.096390464169597	0.10559952520875324	2090.0	0.0	9199.0	6280.731201171875	0.725	811.0	0.5344129554655871	-146.0	-0.45951417004048584	34.0	-53.0	0.1529285823520416	-1.0178679964855848	56.0	-149.0	-0.34775732044360375	
2032.0	0.02940985141680405	1248.0	10.083842284537548	0.09353720926515999	2088.0	0.0	9839.0	6300.262451171875	0.72	809.0	0.548582995951417	-139.0	-0.4574898785425101	33.0	-66.0	-0.3976143141153082	-1.0439851984366126	59.0	-113.0	-0.1485402049074903	
2032.0	0.017751286083384277	1246.0	10.108461941671761	0.09391301675451007	2089.0	0.0	10479.0	6319.793701171875	0.72	809.0	0.548582995951417	-139.0	-0.4574898785425101	33.0	-60.0	-0.8258143447010247	-1.10284188694878	64.0	-85.0	-0.2411956737413614	
2034.0	0.017631792419385575	1247.0	10.096512575271891	0.06957644894770396	2089.0	0.0	11119.0	6339.324951171875	0.72	809.0	0.548582995951417	-139.0	-0.4574898785425101	33.0	-64.0	0.015292858235204161	-1.106335107320943	62.0	-140.0	-0.17985267131258342	
2033.0	0.029532958089817485	1247.0	10.096152951838892	0.08173646090683262	2088.0	0.0	11759.0	6358.856201171875	0.72	809.0	0.548582995951417	-139.0	-0.4574898785425101	33.0	-56.0	-0.09175714941122497	-0.9162575694587787	50.0	-133.0	-0.30070776519896103	
2033.0	0.029532958089817485	1247.0	10.096152951838892	0.08173646090683262	2088.0	0.0	12399.0	6378.387451171875	0.735	815.0	0.5668016194331984	-130.0	-0.4392712550607287	24.0	-58.0	-1.1163786511699039	-0.937106509706717	54.0	-66.0	-0.2702272872851906	
2032.0	0.02940985141680405	1248.0	10.083842284537548	0.09353720926515999	2088.0	0.0	13039.0	6397.918701171875	0.735	815.0	0.5668016194331984	-130.0	-0.4392712550607287	24.0	-67.0	0.565835754702554	-1.0211499340132029	55.0	-176.0	-0.13296736860513128	
2033.0	0.02941105575314229	1248.0	10.083962718171373	0.08149143721011551	2088.0	0.0	13679.0	6417.449951171875	0.735	815.0	0.5668016194331984	-130.0	-0.4392712550607287	24.0	-56.0	1.4528215323443954	-0.9934152498457518	51.0	-234.0	-0.3014793420028308	
2031.0	0.005725809403600721	1247.0	10.096390464169597	0.10559952520875324	2090.0	0.0	14319.0	6436.981201171875	0.72	809.0	0.5506072874493927	-138.0	-0.45951417004048584	34.0	-63.0	0.5964214711729623	-1.0063788115531533	54.0	-178.0	-0.1941975920130304	
2032.0	-0.006053453930155994	1246.0	10.108940321270115	0.09368453694634171	2091.0	0.0	14959.0	6456.512451171875	0.72	809.0	0.5506072874493927	-138.0	-0.45951417004048584	34.0	-62.0	0.4434928888209207	-0.923205296350076	49.0	-168.0	-0.20871034051912454	
2032.0	-0.00629725860350637	1248.0	10.084559853935078	0.09319448955290746	2091.0	0.0	15599.0	6476.043701171875	0.72	809.0	0.5506072874493927	-138.0	-0.45951417004048584	34.0	-56.0	-0.3211500229392874	-0.9839863260659303	55.0	-118.0	-0.3013850527650325	
2033.0	0.029532958089817485	1247.0	10.096152951838892	0.08173646090683262	2088.0	0.0	16239.0	6495.574951171875	0.72	809.0	0.5506072874493927	-138.0	-0.45951417004048584	34.0	-64.0	-0.382321455880104	-1.213477811564202	70.0	-114.0	-0.180924098355016	
2032.0	0.04131222142357419	1248.0	10.083603094738372	0.09365144916924417	2087.0	0.0	16879.0	6515.106201171875	0.7225	810.0	0.5607287449392713	-133.0	-0.451417004048583	30.0	-63.0	-0.9175714941122497	-1.0381094131903028	60.0	-79.0	-0.19451489802940192	
2032.0	0.029653656090154426	1246.0	10.108222751872585	0.09402725665859424	2088.0	0.0	17519.0	6534.637451171875	0.7225	810.0	0.5607287449392713	-133.0	-0.451417004048583	30.0	-48.0	0.3517357394096957	-0.9327680752683846	50.0	-162.0	-0.4236287395220563	
2032.0	0.0056051114032637656	1248.0	10.084320664135902	0.09330872945699165	2090.0	0.0	18159.0	6554.168701171875	0.7225	810.0	0.5607287449392713	-133.0	-0.451417004048583	30.0	-62.0	0.030585716470408322	-0.8913099501058929	48.0	-141.0	-0.2083913870566827	
2031.0	0.029652451753816186	1246.0	10.108102318238762	0.10607302871363872	2088.0	0.0	18799.0	6573.699951171875	0.725	811.0	0.5364372469635628	-145.0	-0.5040485829959515	56.0	-54.0	0.0764642911760208	-0.9226788952765242	50.0	-144.0	-0.3314609457733883	
2032.0	0.04143412376024939	1247.0	10.095793328405891	0.09389647286596128	2087.0	0.0	19439.0	6593.231201171875	0.725	811.0	0.5364372469635628	-145.0	-0.5040485829959515	56.0	-60.0	-0.04587857470561248	-1.1801783307585765	67.0	-136.0	-0.24196903817945936	
2033.0	0.029654860426492666	1246.0	10.10834318550641	0.08198148460354976	2088.0	0.0	20079.0	6612.762451171875	0.725	811.0	0.5364372469635628	-145.0	-0.5040485829959515	56.0	-50.0	-0.09175714941122497	-1.007621257379221	56.0	-133.0	-0.39368830402691485	
2031.0	0.017628179410370856	1247.0	10.09615127437042	0.10571376511283741	2089.0	0.0	20719.0	6632.293701171875	0.7175	808.0	0.5566801619433198	-135.0	-0.4392712550607287	24.0	-65.0	-0.1988071570576541	-1.1594482357721128	66.0	-126.0	-0.1650393189389702	
2032.0	0.0056051114032637656	1248.0	10.084320664135902	0.09330872945699165	2090.0	0.0	21359.0	6651.824951171875	0.7175	808.0	0.5566801619433198	-135.0	-0.4392712550607287	24.0	-55.0	-0.12234286588163329	-0.96102296607808	53.0	-131.0	-0.31649990282327894	
2032.0	0.029531753753479245	1247.0	10.096032518205067	0.0937822329618771	2088.0	0.0	21999.0	6671.356201171875	0.7175	808.0	0.5566801619433198	-135.0	-0.4392712550607287	24.0	-66.0	-0.6881786205841872	-1.109267342387397	64.0	-94.0	-0.14919302634699813	
2031.0	0.041554821760586336	1246.0	10.107863128439586	0.1061872686177229	2087.0	0.0	22639.0	6690.887451171875	0.7175	808.0	0.5566801619433198	-135.0	-0.4392712550607287	24.0	-61.0	-0.6881786205841872	-1.0777387732918267	62.0	-94.0	-0.22560015894666696	
2032.0	0.05333649376701953	1247.0	10.095554138606715	0.09401071277004545	2086.0	0.0	23279.0	6710.418701171875	0.7175	808.0	0.5587044534412956	-134.0	-0.4493927125506073	29.0	-66.0	-1.238721517051537	-0.9488214311567437	55.0	-58.0	-0.1475885672346916	
2032.0	0.017629383746709096	1247.0	10.096271708004243	0.09366799305779293	2089.0	0.0	23919.0	6729.949951171875	0.7175	808.0	0.5587044534412956	-134.0	-0.4493927125506073	29.0	-69.0	-0.5964214711729623	-1.0672554174117266	61.0	-100.0	-0.1027394561228667	
2032.0	0.02977555842682962	1245.0	10.120412985540105	0.09427228035531138	2088.0	0.0	24559.0	6749.481201171875	0.7175	808.0	0.5587044534412956	-134.0	-0.4493927125506073	29.0	-94.0	-2.4468573176326656	-1.1662689408481826	72.0	21.0	0.2798825000958914	
2032.0	-0.005931551593480799	1245.0	10.121130554937634	0.09392956064305885	2091.0	0.0	25199.0	6769.012451171875	0.71	805.0	0.5546558704453441	-136.0	-0.5060728744939271	57.0	-101.0	-4.159657439975532	-1.2372641902486792	81.0	133.0	0.3865839332087608	
2032.0	-0.017224409916875016	1240.0	10.182320913074404	0.09504043922256032	2092.0	0.0	25839.0	6788.543701171875	0.71	805.0	0.5546558704453441	-136.0	-0.5060728744939271	57.0	-122.0	-8.85456491818321	-1.2680386396306575	95.0	440.0	0.708510345535564	
2030.0	0.06535835743778838	1246.0	10.10726431520741	0.11846152048093574	2085.0	0.0	26479.0	6808.074951171875	0.71	805.0	0.5546558704453441	-136.0	-0.5060728744939271	57.0	-130.0	-13.350665239333233	-1.4893385264930812	121.0	734.0	0.829053215931939	
2003.0	-0.3281837838868098	1252.0	10.038764468461874	0.4384573069520561	2118.0	0.0	27119.0	6827.606201171875	0.71	805.0	0.5546558704453441	-136.0	-0.5060728744939271	57.0	-155.0	-17.250344089310293	-0.8911620933930181	92.0	989.0	1.2186470717160622	
2004.0	-0.48352290132185943	1257.0	9.981043201147394	0.4237012976603317	2131.0	0.0	27759.0	6847.137451171875	0.71	805.0	0.5506072874493927	-138.0	-0.5020242914979757	55.0	-72.0	-2.0492430035173577	-11.007070684212536	711.0	-5.0	-0.15610415781650006	
2004.0	-0.8397406851682373	1250.0	10.073550530795314	0.4219892664148263	2161.0	0.0	28399.0	6866.668701171875	0.71	805.0	0.5506072874493927	-138.0	-0.5020242914979757	55.0	-58.0	1.1622572258755162	-3.95057788576045	244.0	-215.0	-0.3003620010457279	
1985.0	-0.9456658742528432	1240.0	10.195317336620437	0.6522810132910851	2170.0	0.0	29039.0	6886.199951171875	0.71	805.0	0.5506072874493927	-138.0	-0.5020242914979757	55.0	-70.0	0.6728857623489831	-8.962338574514822	571.0	-183.0	-0.16634580403577276	
1978.0	-1.529621848958999	1246.0	10.133053199338194	0.7295335201959691	2219.0	0.0	29679.0	6905.731201171875	0.705	803.0	0.576923076923077	-125.0	-0.46963562753036436	39.0	-4.0	5.643064688790336	-12.134857404123823	765.0	-508.0	-1.2108069137681066	
2021.0	-1.3048878604079244	1258.0	9.98740443539804	0.21079559564605022	2200.0	0.0	30319.0	6925.262451171875	0.705	803.0	0.576923076923077	-125.0	-0.46963562753036436	39.0	-99.0	1.4528215323443954	1.337855325611326	-101.0	-234.0	0.381646161051111	
1970.0	-1.2822416625777109	1267.0	9.87107183746701	0.8231532369910328	2198.0	0.0	30959.0	6944.793701171875	0.705	803.0	0.576923076923077	-125.0	-0.46963562753036436	39.0	-66.0	-2.997400214100016	1.320960329073707	-88.0	57.0	-0.1248907496323871	
2028.0	-0.2309842780373898	1236.0	10.234905529594357	0.14214730395609157	2110.0	0.0	31599.0	6964.324951171875	0.715	807.0	0.5748987854251012	-126.0	-0.46963562753036436	39.0	10.0	6.10185043584646	-4.045424387312886	238.0	-538.0	-1.344735354813746	
1980.0	-0.02882369840320792	1237.0	10.212868254917305	0.7220414172709406	2093.0	0.0	32239.0	6983.856201171875	0.715	807.0	0.5748987854251012	-126.0	-0.46963562753036436	39.0	-83.0	2.64566447469032	-4.890444496399366	301.0	-312.0	0.07385142430100558	
2033.0	-0.3739285987736155	1237.0	10.226187741686072	0.08030254113514193	2122.0	0.0	32879.0	7003.387451171875	0.715	807.0	0.5748987854251012	-126.0	-0.46963562753036436	39.0	-74.0	1.3763572411683744	-0.10103748771574303	-7.0	-229.0	-0.016354858535282336	
1982.0	-0.18038263906498836	1211.0	10.533164664929734	0.7028353705224026	2106.0	0.0	33519.0	7022.918701171875	0.715	807.0	0.5748987854251012	-126.0	-0.46963562753036436	39.0	56.0	9.940357852882705	-8.975292637855286	549.0	-789.0	-2.0998802855929153	
2015.0	-0.5896557649896687	1249.0	10.082042548652193	0.29212983549182187	2140.0	0.0	34159.0	7042.449951171875	0.7225	810.0	0.5546558704453441	-136.0	-0.4858299595141701	47.0	11.0	5.0925217923229855	-6.358150603486152	391.0	-472.0	-1.3832071006336033	
2028.0	-0.4585921362061247	1248.0	10.09316733176848	0.13703646141788667	2129.0	0.0	34799.0	7061.981201171875	0.7225	810.0	0.5546558704453441	-136.0	-0.4858299595141701	47.0	-86.0	4.954886068206148	-3.1683405366408577	183.0	-463.0	0.13710591487296536	
1966.0	0.8775680964527155	1222.0	10.375857264319162	0.9030398142027176	2017.0	0.0	35439.0	7081.512451171875	0.7225	810.0	0.5546558704453441	-136.0	-0.4858299595141701	47.0	-3.0	4.052607432329102	11.769009715679008	-785.0	-404.0	-0.9871127262282033	
2016.0	0.29404647592786476	1225.0	10.357028545167426	0.29441838506021756	2066.0	0.0	36079.0	7101.043701171875	0.72	809.0	0.5465587044534413	-140.0	-0.4757085020242915	42.0	-18.0	-3.226793087628078	8.135773921887283	-530.0	72.0	-0.7932778292942468	
2008.0	0.08852709036851153	1251.0	10.043185227327342	0.38247186701649705	2083.0	0.0	36719.0	7120.574951171875	0.72	809.0	0.5465587044534413	-140.0	-0.4757085020242915	42.0	129.0	-4.29729316409237	9.400839222406628	-608.0	142.0	-3.036266274033415	
2126.0	-0.007037367344438425	1255.0	10.010548979841872	-1.0408232494982936	2091.0	0.0	37359.0	7140.106201171875	0.72	809.0	0.5465587044534413	-140.0	-0.4757085020242915	42.0	-211.0	-10.888515063465363	14.211128241593304	-907.0	573.0	2.2289610599209206	
2072.0	1.0319389568458797	1226.0	10.336752827445105	-0.3733069996657715	2004.0	0.0	37999.0	7159.637451171875	0.72	809.0	0.5465587044534413	-140.0	-0.4757085020242915	42.0	-73.0	7.600550542896468	-5.794598524059233	347.0	-636.0	-0.08863495255684214	
2037.0	0.6706810254239807	1260.0	9.925245399540925	0.036537019449877556	2034.0	0.0	38639.0	7179.168701171875	0.72	809.0	0.5364372469635628	-145.0	-0.5020242914979757	55.0	-6.0	8.931029209359231	1.606731460571623	-137.0	-723.0	-1.0427020578049022	
2011.0	0.33470150108276836	1282.0	9.660626298753028	0.3411378542389003	2062.0	0.0	39279.0	7198.699951171875	0.72	809.0	0.5364372469635628	-145.0	-0.5020242914979757	55.0	-85.0	-0.764642911760208	7.042652494318015	-466.0	-89.0	0.2238713615244292	
2029.0	0.4589886796815912	1239.0	10.184582253873403	0.13599237524777794	2052.0	0.0	39919.0	7218.231201171875	0.72	809.0	0.5364372469635628	-145.0	-0.5020242914979757	55.0	-152.0	1.3457715246979662	7.409385906011184	-496.0	-227.0	1.2556191007357294	
2073.0	0.49304214778733135	1253.0	10.018500493018852	-0.39710920721596654	2049.0	0.0	40559.0	7237.762451171875	0.74	817.0	0.5303643724696356	-148.0	-0.49190283400809715	50.0	2.0	-2.263343018810216	13.28360790664092	-867.0	9.0	-1.0486891626092085	
2047.0	0.8019848458718601	1257.0	9.960389349090779	-0.08192899106548993	2023.0	0.0	41199.0	7257.293701171875	0.74	817.0	0.5303643724696356	-148.0	-0.49190283400809715	50.0	-75.0	-3.9149717082122653	11.784400585168912	-766.0	117.0	0.11784400585168911	
2067.0	0.8015213232519242	1261.0	9.914037087097178	-0.32382452695324804	2023.0	0.0	41839.0	7276.824951171875	0.74	817.0	0.5303643724696356	-148.0	-0.49190283400809715	50.0	-103.0	-1.2693072335219453	10.50535454011772	-690.0	-56.0	0.5346990878286746	
2080.0	-0.719206686486126	1336.0	9.031712303768355	-0.5133048087413012	2150.0	0.0	42479.0	7296.356201171875	0.725	811.0	0.5242914979757085	-151.0	-0.4736842105263158	41.0	-79.0	6.178314727022481	-2.15492973716709	114.0	-543.0	0.03982863726082872	
2032.0	1.1195958575600478	1190.0	10.769109565528602	0.1181444149464135	1997.0	0.0	43119.0	7315.887451171875	0.725	811.0	0.5242914979757085	-151.0	-0.4736842105263158	41.0	-60.0	7.478207677014835	-6.510604123573447	394.0	-628.0	-0.29527329610760805	
2047.0	0.7098134442345787	1232.0	10.267058709172158	-0.07671731788023511	2031.0	0.0	43759.0	7335.418701171875	0.725	811.0	0.5242914979757085	-151.0	-0.4736842105263158	41.0	-31.0	6.315950451139319	-0.3996689671871486	0.0	-552.0	-0.6791539706293674	
2059.0	0.8395349429783573	1242.0	10.143970488311917	-0.22246018056301423	2020.0	0.0	44399.0	7354.949951171875	0.725	811.0	0.5242914979757085	-151.0	-0.4736842105263158	41.0	-17.0	-2.2327573023398077	7.142565825265203	-468.0	7.0	-0.8185543939185925	
2068.0	0.9470328190763583	1239.0	10.1794723838263	-0.32910889883150557	2011.0	0.0	45039.0	7374.481201171875	0.7375	816.0	0.5141700404858299	-156.0	-0.4898785425101215	49.0	-56.0	-1.055207218229087	5.382225881057175	-357.0	-70.0	-0.23772293069380146	
2044.0	0.6495665671716623	1238.0	10.194751955261458	-0.042621343415825325	2036.0	0.0	45679.0	7394.012451171875	0.7375	816.0	0.5141700404858299	-156.0	-0.4898785425101215	49.0	-106.0	1.437528674109191	-3.584434488065792	219.0	-233.0	0.4398346485212142	
2040.0	0.589074681099057	1246.0	10.097944300381892	0.003030355710194693	2041.0	0.0	46319.0	7413.543701171875	0.7375	816.0	0.5141700404858299	-156.0	-0.4898785425101215	49.0	-59.0	2.9515216393944033	-2.7149343162878425	159.0	-332.0	-0.2726610816928769	
2050.0	0.5641848634188225	1255.0	9.989914913310812	-0.11986105791887264	2043.0	0.0	46959.0	7433.074951171875	0.7375	816.0	0.5161943319838057	-155.0	-0.5101214574898786	59.0	-52.0	-0.764642911760208	3.3563450723185273	-226.0	-89.0	-0.3193596734136876	
2055.0	0.5293370914369294	1248.0	10.07656628655009	-0.17871747202932764	2046.0	0.0	47599.0	7452.606201171875	0.7375	816.0	0.5161943319838057	-155.0	-0.5101214574898786	59.0	-44.0	-0.2752714482336749	3.56871026922223	-241.0	-121.0	-0.4399918907096498	
2054.0	0.3757021980426561	1239.0	10.189267423313229	-0.16595160545692333	2059.0	0.0	48239.0	7472.137451171875	0.7375	816.0	0.5161943319838057	-155.0	-0.5101214574898786	59.0	-36.0	1.2540143752867412	-2.705034779974947	163.0	-221.0	-0.6254852104666208	
2045.0	0.350789497971995	1248.0	10.078949797199497	-0.059973350040145534	2061.0	0.0	48879.0	7491.668701171875	0.7375	816.0	0.5161943319838057	-155.0	-0.5101214574898786	59.0	-61.0	-1.7892644135188869	3.149853595850699	-210.0	-22.0	-0.1833242352552417	
2057.0	0.6254117765204935	1241.0	10.16022527109696	-0.20017993102972328	2038.0	0.0	49519.0	7511.199951171875	0.7375	816.0	0.5161943319838057	-155.0	-0.48785425101214575	48.0	-63.0	1.605750114696437	-0.5853265959720417	24.0	-244.0	-0.18998706985721928	
2044.0	0.3153249882886967	1246.0	10.10392740029824	-0.04778025030391933	2064.0	0.0	50159.0	7530.731201171875	0.7375	816.0	0.5161943319838057	-155.0	-0.48785425101214575	48.0	-57.0	-0.10705000764642914	-0.08524096184821726	-4.0	-132.0	-0.2770531154647305	
2040.0	0.33863730161018324	1250.0	10.054206351494518	-3.4877706244151874E-4	2062.0	0.0	50799.0	7550.262451171875	0.7375	816.0	0.5161943319838057	-155.0	-0.48785425101214575	48.0	-41.0	1.5598715399908245	-1.9643801608533678	114.0	-241.0	-0.5413562459847806	
2042.0	0.1962988795483188	1246.0	10.106078431022356	-0.02483110523467208	2074.0	0.0	51439.0	7569.793701171875	0.74	817.0	0.5222672064777328	-152.0	-0.47975708502024295	44.0	-38.0	2.676250191160728	-6.653545219090257	416.0	-314.0	-0.6342813475415241	
2045.0	0.3510333026453454	1246.0	10.103330264534534	-0.059483302646711284	2061.0	0.0	52079.0	7589.324951171875	0.74	817.0	0.5222672064777328	-152.0	-0.47975708502024295	44.0	-54.0	2.4468573176326656	-8.061850688387905	508.0	-299.0	-0.40285266370450207	
2037.0	0.17224431317973693	1248.0	10.081574175116552	0.034679227838947696	2076.0	0.0	52719.0	7608.856201171875	0.74	817.0	0.5222672064777328	-152.0	-0.47975708502024295	44.0	-57.0	1.529285823520416	-7.056627005759843	445.0	-239.0	-0.34676697590384675	
2036.0	0.1128531611462232	1247.0	10.094839924146129	0.04639882407028842	2081.0	0.0	53359.0	7628.387451171875	0.7475	820.0	0.5141700404858299	-156.0	-0.4939271255060729	51.0	-57.0	0.3517357394096957	-3.302778406021732	204.0	-162.0	-0.3092284899064656	
2032.0	0.0175074814100339	1248.0	10.084081474336724	0.09342296936107582	2089.0	0.0	53999.0	7647.918701171875	0.7475	820.0	0.5141700404858299	-156.0	-0.4939271255060729	51.0	-71.0	0.6117143294081664	-1.4696392250774677	84.0	-179.0	-0.0760743268832743	
2033.0	0.04119152342323725	1249.0	10.071533294704679	0.08136065341748255	2087.0	0.0	54639.0	7667.449951171875	0.7475	820.0	0.5141700404858299	-156.0	-0.4939271255060729	51.0	-70.0	0.474078605291329	-1.0025595926958424	54.0	-170.0	-0.08674801421758296	
2033.0	0.017630588083047335	1247.0	10.096392141638068	0.08162222100274845	2089.0	0.0	55279.0	7686.981201171875	0.7475	820.0	0.5141700404858299	-156.0	-0.4939271255060729	51.0	-70.0	0.6728857623489831	-1.0105110838290352	54.0	-183.0	-0.0868275291289149	
2032.0	0.00572701373993896	1247.0	10.096510897803421	0.09355375315370876	2090.0	0.0	55919.0	7706.512451171875	0.7425	818.0	0.5222672064777328	-152.0	-0.47975708502024295	44.0	-58.0	0.474078605291329	-1.0160991495859655	55.0	-170.0	-0.27101721368398307	
2033.0	0.0057282180762772	1247.0	10.096631331437244	0.08150798109866428	2090.0	0.0	56559.0	7726.043701171875	0.7425	818.0	0.5222672064777328	-152.0	-0.47975708502024295	44.0	-75.0	0.16822144058724578	-0.9603322552547556	52.0	-150.0	-0.009603322552547556	
2032.0	0.00572701373993896	1247.0	10.096510897803421	0.09355375315370876	2090.0	0.0	57199.0	7745.574951171875	0.7425	818.0	0.5222672064777328	-152.0	-0.47975708502024295	44.0	-69.0	0.3976143141153082	-1.137774294705102	63.0	-165.0	-0.10344464489580046	
2032.0	0.029531753753479245	1247.0	10.096032518205067	0.0937822329618771	2088.0	0.0	57839.0	7765.106201171875	0.7425	818.0	0.5263157894736842	-150.0	-0.4757085020242915	42.0	-58.0	0.3517357394096957	-0.9035409485772923	48.0	-162.0	-0.26989163167389635	
2034.0	0.02941226008948053	1248.0	10.084083151805196	0.06944566515507103	2088.0	0.0	58479.0	7784.637451171875	0.7425	818.0	0.5263157894736842	-150.0	-0.4757085020242915	42.0	-61.0	-0.2752714482336749	-0.8789234573304259	48.0	-121.0	-0.22361200578705295	
2033.0	0.005850120412952381	1246.0	10.108821565104762	0.08175300479538142	2090.0	0.0	59119.0	7804.168701171875	0.7425	818.0	0.5263157894736842	-150.0	-0.4757085020242915	42.0	-65.0	-0.29056430646887904	-0.940448365395684	52.0	-120.0	-0.1628493202352059	
2033.0	0.0057282180762772	1247.0	10.096631331437244	0.08150798109866428	2090.0	0.0	59759.0	7823.699951171875	0.74	817.0	0.5101214574898786	-158.0	-0.52834008097166	68.0	-67.0	0.10705000764642914	-1.0643231823452726	59.0	-146.0	-0.133399101088452	
2034.0	0.017631792419385575	1247.0	10.096512575271891	0.06957644894770396	2089.0	0.0	60399.0	7843.231201171875	0.74	817.0	0.5101214574898786	-158.0	-0.52834008097166	68.0	-61.0	0.25997858999847073	-1.0079962937695766	55.0	-156.0	-0.22490273415144446	
2033.0	0.017630588083047335	1247.0	10.096392141638068	0.08162222100274845	2089.0	0.0	61039.0	7862.762451171875	0.74	817.0	0.5101214574898786	-158.0	-0.52834008097166	68.0	-62.0	0.6423000458785748	-1.0542024739929134	57.0	-181.0	-0.2100203122955529	
2033.0	0.0057282180762772	1247.0	10.096631331437244	0.08150798109866428	2090.0	0.0	61679.0	7882.293701171875	0.74	817.0	0.5101214574898786	-158.0	-0.52834008097166	68.0	-61.0	0.12234286588163329	-0.987110704479045	54.0	-147.0	-0.22469387825853915	
2033.0	-0.006174151930492935	1247.0	10.09687052123642	0.0813937411945801	2091.0	0.0	62319.0	7901.824951171875	0.745	819.0	0.520242914979757	-153.0	-0.4757085020242915	42.0	-59.0	0.13763572411683744	-1.0027962094695786	55.0	-148.0	-0.2555397006246943	
2033.0	0.0057282180762772	1247.0	10.096631331437244	0.08150798109866428	2090.0	0.0	62959.0	7921.356201171875	0.745	819.0	0.520242914979757	-153.0	-0.4757085020242915	42.0	-62.0	-0.0764642911760208	-1.0254547752806007	57.0	-134.0	-0.2097328353084298	
2032.0	0.04143412376024939	1247.0	10.095793328405891	0.09389647286596128	2087.0	0.0	63599.0	7940.887451171875	0.745	819.0	0.520242914979757	-153.0	-0.4757085020242915	42.0	-50.0	-0.6881786205841872	-1.106812470489287	64.0	-94.0	-0.3946802161580155	
2032.0	0.017629383746709096	1247.0	10.096271708004243	0.09366799305779293	2089.0	0.0	64239.0	7960.418701171875	0.735	815.0	0.52834008097166	-149.0	-0.5	54.0	-57.0	0.3211500229392874	-0.9790677668240048	53.0	-160.0	-0.2859913835144884	
2033.0	0.017630588083047335	1247.0	10.096392141638068	0.08162222100274845	2089.0	0.0	64879.0	7979.949951171875	0.735	815.0	0.52834008097166	-149.0	-0.5	54.0	-67.0	0.42820003058571654	-0.9541222122815548	51.0	-167.0	-0.13229709138781479	
2033.0	0.053215795766682575	1248.0	10.083484338573019	0.08171991701828386	2086.0	0.0	65519.0	7999.481201171875	0.735	815.0	0.52834008097166	-149.0	-0.5	54.0	-65.0	0.3517357394096957	-0.8892342442190099	47.0	-162.0	-0.16233717902343917	
2031.0	-0.018078930609939564	1247.0	10.096868843767949	0.10537104540058488	2092.0	0.0	623.0	8019.012451171875	0.735	815.0	0.52834008097166	-149.0	-0.5	54.0	-55.0	0.382321455880104	-1.1196339178164583	62.0	-164.0	-0.31808601234066275	
2032.0	0.00572701373993896	1247.0	10.096510897803421	0.09355375315370876	2090.0	0.0	1263.0	8038.543701171875	0.7425	818.0	0.5	-163.0	-0.4979757085020243	53.0	-58.0	-0.13763572411683744	-0.9762523122085895	54.0	-130.0	-0.2706187453102093	
2034.0	0.029656064762830905	1246.0	10.108463619140233	0.06993571254850528	2088.0	0.0	1903.0	8058.074951171875	0.7425	818.0	0.5	-163.0	-0.4979757085020243	53.0	-70.0	-0.45878574705612485	-0.9344873280588342	52.0	-109.0	-0.08606729157121287	
2033.0	0.02941105575314229	1248.0	10.083962718171373	0.08149143721011551	2088.0	0.0	2543.0	8077.606201171875	0.7425	818.0	0.5	-163.0	-0.4979757085020243	53.0	-59.0	-0.5811286129377581	-0.9125256675024437	51.0	-101.0	-0.2546369952050229	
2033.0	0.0057282180762772	1247.0	10.096631331437244	0.08150798109866428	2090.0	0.0	3183.0	8097.137451171875	0.735	815.0	0.5222672064777328	-152.0	-0.5040485829959515	56.0	-63.0	-0.04587857470561248	-0.9499279570338883	52.0	-136.0	-0.19363308346783775	
2034.0	0.017631792419385575	1247.0	10.096512575271891	0.06957644894770396	2089.0	0.0	3823.0	8116.668701171875	0.735	815.0	0.5222672064777328	-152.0	-0.5040485829959515	56.0	-53.0	0.13763572411683744	-0.8634492351844371	46.0	-148.0	-0.3462131328305923	
2033.0	0.005850120412952381	1246.0	10.108821565104762	0.08175300479538142	2090.0	0.0	4463.0	8136.199951171875	0.735	815.0	0.5222672064777328	-152.0	-0.5040485829959515	56.0	-62.0	0.29056430646887904	-0.9939923187776862	54.0	-158.0	-0.20941821074340064	
2033.0	0.02941105575314229	1248.0	10.083962718171373	0.08149143721011551	2088.0	0.0	5103.0	8155.731201171875	0.7325	814.0	0.52834008097166	-149.0	-0.4979757085020243	53.0	-62.0	-0.42820003058571654	-1.026767463320196	58.0	-111.0	-0.20974596218882574	
2033.0	0.005850120412952381	1246.0	10.108821565104762	0.08175300479538142	2090.0	0.0	5743.0	8175.262451171875	0.7325	814.0	0.52834008097166	-149.0	-0.4979757085020243	53.0	-65.0	0.29056430646887904	-1.0098333180722876	55.0	-158.0	-0.16354316976197195	
2032.0	0.00572701373993896	1247.0	10.096510897803421	0.09355375315370876	2090.0	0.0	6383.0	8194.793701171875	0.7325	814.0	0.52834008097166	-149.0	-0.4979757085020243	53.0	-62.0	0.18351429882244993	-1.1127564331386888	62.0	-151.0	-0.21060585188701064	
2034.0	0.017631792419385575	1247.0	10.096512575271891	0.06957644894770396	2089.0	0.0	7023.0	8214.324951171875	0.7325	814.0	0.52834008097166	-149.0	-0.4979757085020243	53.0	-51.0	-0.1988071570576541	-0.9265895606556825	51.0	-126.0	-0.3775335034015546	
2034.0	0.017631792419385575	1247.0	10.096512575271891	0.06957644894770396	2089.0	0.0	7663.0	8233.856201171875	0.7475	820.0	0.5242914979757085	-151.0	-0.520242914979757	64.0	-56.0	-0.25997858999847073	-1.0171943603497084	57.0	-122.0	-0.3017171331078703	
2033.0	0.04143532809658763	1247.0	10.095913762039716	0.0818507008109168	2087.0	0.0	8303.0	8253.387451171875	0.7475	820.0	0.5242914979757085	-151.0	-0.520242914979757	64.0	-57.0	-0.3058571647040832	-1.1539392276744154	66.0	-119.0	-0.28774009812299245	
2033.0	0.017630588083047335	1247.0	10.096392141638068	0.08162222100274845	2089.0	0.0	8943.0	8272.918701171875	0.7475	820.0	0.5242914979757085	-151.0	-0.520242914979757	64.0	-52.0	-0.6881786205841872	-0.9533122213394949	54.0	-94.0	-0.36245624635026774	
2032.0	0.005848916076614141	1246.0	10.108701131470939	0.0937987768504259	2090.0	0.0	9583.0	8292.449951171875	0.7425	818.0	0.5161943319838057	-155.0	-0.5101214574898786	59.0	-58.0	-1.1163786511699039	-0.9986293529615393	58.0	-66.0	-0.2708425157177388	
2033.0	0.017630588083047335	1247.0	10.096392141638068	0.08162222100274845	2089.0	0.0	10223.0	8311.981201171875	0.7425	818.0	0.5161943319838057	-155.0	-0.5101214574898786	59.0	-62.0	-0.5352500382321457	-0.8840594938482035	49.0	-104.0	-0.20831888249410582	
2032.0	0.017629383746709096	1247.0	10.096271708004243	0.09366799305779293	2089.0	0.0	10863.0	8331.512451171875	0.7425	818.0	0.5161943319838057	-155.0	-0.5101214574898786	59.0	-56.0	-0.12234286588163329	-0.9919378171991231	55.0	-131.0	-0.3014645676763644	
2033.0	0.029532958089817485	1247.0	10.096152951838892	0.08173646090683262	2088.0	0.0	11503.0	8351.043701171875	0.7425	818.0	0.5161943319838057	-155.0	-0.5101214574898786	59.0	-64.0	-0.3211500229392874	-0.923690918760163	51.0	-118.0	-0.1780262294269756	
2034.0	0.029534162426155725	1247.0	10.096273385472715	0.06969068885178814	2088.0	0.0	12143.0	8370.574951171875	0.73	813.0	0.5182186234817814	-154.0	-0.520242914979757	64.0	-62.0	-0.6881786205841872	-1.0317500703443416	59.0	-94.0	-0.2097957882590672	
2033.0	0.04143532809658763	1247.0	10.095913762039716	0.0818507008109168	2087.0	0.0	12783.0	8390.106201171875	0.73	813.0	0.5182186234817814	-154.0	-0.520242914979757	64.0	-65.0	0.0	-1.1058768836504833	62.0	-139.0	-0.16450360541775388	
2034.0	0.04155843476960104	1246.0	10.108224429341057	0.07004995245258944	2087.0	0.0	13423.0	8409.637451171875	0.73	813.0	0.5182186234817814	-154.0	-0.520242914979757	64.0	-67.0	0.1988071570576541	-1.0833738121435286	60.0	-152.0	-0.13358960738643452	
2031.0	0.041554821760586336	1246.0	10.107863128439586	0.1061872686177229	2087.0	0.0	14063.0	8429.168701171875	0.7375	816.0	0.5101214574898786	-158.0	-0.5101214574898786	59.0	-55.0	0.030585716470408322	-1.0286623409738198	57.0	-141.0	-0.31717629657223634	
2035.0	0.005608724412278485	1248.0	10.084681965037372	0.05717141329185818	2090.0	0.0	14703.0	8448.699951171875	0.7375	816.0	0.5101214574898786	-158.0	-0.5101214574898786	59.0	-68.0	0.9175714941122497	-0.9892292538398285	52.0	-199.0	-0.11730367814527262	
2032.0	0.00572701373993896	1247.0	10.096510897803421	0.09355375315370876	2090.0	0.0	15343.0	8468.231201171875	0.7375	816.0	0.5101214574898786	-158.0	-0.5101214574898786	59.0	-58.0	1.0246215017586788	-1.1150222175617965	60.0	-206.0	-0.2720064443637414	
2034.0	0.017631792419385575	1247.0	10.096512575271891	0.06957644894770396	2089.0	0.0	15983.0	8487.762451171875	0.7475	820.0	0.5060728744939271	-160.0	-0.5	54.0	-53.0	0.5046643217617374	-1.0165553084459895	55.0	-172.0	-0.3477441935632078	
2034.0	0.041192727759575484	1249.0	10.071653728338502	0.06931488136243805	2087.0	0.0	16623.0	8507.293701171875	0.7475	820.0	0.5060728744939271	-160.0	-0.5	54.0	-49.0	-0.09175714941122497	-0.9920871170718835	55.0	-133.0	-0.4088774462819664	
2033.0	0.04131342575991243	1248.0	10.083723528372197	0.08160567711419969	2087.0	0.0	17263.0	8526.824951171875	0.7475	820.0	0.5060728744939271	-160.0	-0.5	54.0	-60.0	0.764642911760208	-0.8126974672990943	41.0	-189.0	-0.2382942295448645	
2031.0	0.01750627707369566	1248.0	10.083961040702901	0.1054687414161203	2089.0	0.0	17903.0	8546.356201171875	0.7475	820.0	0.5060728744939271	-160.0	-0.5	54.0	-69.0	0.474078605291329	-1.0639290064570328	58.0	-170.0	-0.10270619201331976	
2032.0	-0.006053453930155994	1246.0	10.108940321270115	0.09368453694634171	2091.0	0.0	18543.0	8565.887451171875	0.74	817.0	0.5121457489878543	-157.0	-0.4858299595141701	47.0	-64.0	-0.12234286588163329	-0.9470231207070615	52.0	-131.0	-0.17825955144644456	
2034.0	0.017631792419385575	1247.0	10.096512575271891	0.06957644894770396	2089.0	0.0	19183.0	8585.418701171875	0.74	817.0	0.5121457489878543	-157.0	-0.4858299595141701	47.0	-64.0	-0.4434928888209207	-0.9957012475159569	56.0	-110.0	-0.17874633271453355	
2034.0	0.005851324749290621	1246.0	10.108941998738585	0.06970723274033691	2090.0	0.0	19823.0	8604.949951171875	0.74	817.0	0.5121457489878543	-157.0	-0.4858299595141701	47.0	-68.0	-0.749350053525004	-1.1994118536005274	70.0	-90.0	-0.1194055041428796	
2034.0	0.029534162426155725	1247.0	10.096273385472715	0.06969068885178814	2088.0	0.0	20463.0	8624.481201171875	0.7475	820.0	0.5080971659919028	-159.0	-0.5080971659919028	58.0	-54.0	-1.6669215476372536	-0.9759961210797086	58.0	-30.0	-0.3319941180314201	
2035.0	0.017632996755723815	1247.0	10.096633008905716	0.05753067689265948	2089.0	0.0	21103.0	8644.012451171875	0.7475	820.0	0.5080971659919028	-159.0	-0.5080971659919028	58.0	-64.0	-1.9421929958709285	-1.0280435023171983	62.0	-12.0	-0.17906975526254593	
2035.0	0.06499867210945401	1249.0	10.071295782373973	0.05749758911556194	2085.0	0.0	21743.0	8663.543701171875	0.7475	820.0	0.5080971659919028	-159.0	-0.5080971659919028	58.0	-47.0	-2.5997858999847074	-0.9376112716146882	58.0	31.0	-0.4390216551436442	
2033.0	0.02941105575314229	1248.0	10.083962718171373	0.08149143721011551	2088.0	0.0	22383.0	8683.074951171875	0.7475	820.0	0.5080971659919028	-159.0	-0.5080971659919028	58.0	-56.0	-0.6117143294081664	-1.0954106024578314	63.0	-99.0	-0.30249929552895155	
2034.0	-0.006172947594154696	1247.0	10.096990954870243	0.06934796913953561	2091.0	0.0	23023.0	8702.606201171875	0.7475	820.0	0.520242914979757	-153.0	-0.4817813765182186	45.0	-48.0	-0.4434928888209207	-0.9163428215493188	51.0	-110.0	-0.42346448698486566	
2032.0	0.053580298440369906	1245.0	10.119934605941753	0.09450076016347973	2086.0	0.0	23663.0	8722.137451171875	0.7475	820.0	0.520242914979757	-153.0	-0.4817813765182186	45.0	-49.0	-0.382321455880104	-0.9189428636993177	51.0	-114.0	-0.4081460037482407	
2034.0	0.06524127244646614	1247.0	10.095555816075187	0.07003340856404067	2085.0	0.0	24303.0	8741.668701171875	0.7475	820.0	0.520242914979757	-153.0	-0.4817813765182186	45.0	-27.0	-2.4468573176326656	-0.909897791755557	56.0	21.0	-0.745634193507551	
2033.0	0.07689863344354768	1249.0	10.070815725307149	0.08170337312973508	2084.0	0.0	24943.0	8761.199951171875	0.73	813.0	0.5242914979757085	-151.0	-0.5182186234817814	63.0	-40.0	-2.0339501452821533	-0.8515034565347209	51.0	-6.0	-0.545571962599719	
2033.0	0.053215795766682575	1248.0	10.083484338573019	0.08171991701828386	2086.0	0.0	25583.0	8780.731201171875	0.73	813.0	0.5242914979757085	-151.0	-0.5182186234817814	63.0	-49.0	1.238721517051537	-1.1529659180438054	62.0	-220.0	-0.4104862342916856	
2036.0	0.07726795346258794	1246.0	10.107747727211175	0.04630112805475303	2084.0	0.0	26223.0	8800.262451171875	0.73	813.0	0.5242914979757085	-151.0	-0.5182186234817814	63.0	-44.0	0.6270071876433706	-0.9893062466886253	53.0	-180.0	-0.48557205586875835	
2035.0	0.05346200911270942	1246.0	10.108105673175704	0.05811842030162914	2086.0	0.0	26863.0	8819.793701171875	0.745	819.0	0.5242914979757085	-151.0	-0.4898785425101215	49.0	-63.0	-2.6915430493959325	-0.8441119596460144	52.0	37.0	-0.19257492349395902	
2032.0	0.07714123378055981	1247.0	10.095075759008363	0.09423919257821381	2084.0	0.0	27503.0	8839.324951171875	0.745	819.0	0.5242914979757085	-151.0	-0.4898785425101215	49.0	-70.0	-1.7892644135188869	-0.9889384784787902	59.0	-22.0	-0.08661180307541244	
2033.0	0.07738624279024843	1245.0	10.119576659977223	0.08268346791660361	2084.0	0.0	28143.0	8858.856201171875	0.745	819.0	0.5242914979757085	-151.0	-0.4898785425101215	49.0	-54.0	-1.1622572258755162	-0.9807999646810309	57.0	-63.0	-0.33204215646743335	
2033.0	0.06560577512015348	1244.0	10.132006083443919	0.08281425170923655	2085.0	0.0	28783.0	8878.387451171875	0.745	819.0	0.5242914979757085	-151.0	-0.4898785425101215	49.0	-61.0	-1.9574858541061326	-1.0115908498585051	61.0	-11.0	-0.22493867971233375	
2032.0	-0.04066344292038973	1237.0	10.219369993675313	0.09554703050454336	2094.0	0.0	29423.0	8897.918701171875	0.7475	820.0	0.5242914979757085	-151.0	-0.48785425101214575	48.0	-58.0	-0.04587857470561248	-0.8876379663109065	48.0	-136.0	-0.2697326018512325	
2035.0	-0.07563552591163432	1231.0	10.293590265979427	0.06053713680746012	2097.0	0.0	30063.0	8917.449951171875	0.7475	820.0	0.5242914979757085	-151.0	-0.48785425101214575	48.0	-75.0	-4.878421777030128	-1.0661009273785873	72.0	180.0	-0.010661009273785873	
2035.0	-0.29739207191996025	1195.0	10.736983284194453	0.0671874317116774	2116.0	0.0	30703.0	8936.981201171875	0.7475	820.0	0.5242914979757085	-151.0	-0.48785425101214575	48.0	-85.0	-15.721058265789878	-0.7416381046697894	79.0	889.0	0.14602845553455118	
2034.0	0.5522632240306404	1255.0	9.98822716496881	0.07275705505775487	2044.0	0.0	31343.0	8956.512451171875	0.715	807.0	0.5526315789473685	-137.0	-0.5263157894736842	67.0	-145.0	-74.75149105367794	1.1333353038816079	110.0	4749.0	1.0854472091075598	
2033.0	0.4384801201036339	1212.0	10.514678677030059	0.09419644703079415	2054.0	0.0	31983.0	8976.043701171875	0.715	807.0	0.5526315789473685	-137.0	-0.5263157894736842	67.0	-330.0	-90.64077076005506	0.37157522263124765	199.0	5788.0	3.9165590850481635	
2030.0	1.7803527004553674	1335.0	8.98765099791768	0.11321919756531687	1940.0	0.0	32623.0	8995.574951171875	0.715	807.0	0.5526315789473685	-137.0	-0.5263157894736842	67.0	-189.0	-74.03272671662334	1.9283950913895935	56.0	4702.0	1.768555087940135	
2027.0	1.7344462401327245	1321.0	9.158909727558177	0.15232988586815344	1944.0	0.0	33263.0	9015.106201171875	0.715	807.0	0.5526315789473685	-137.0	-0.5263157894736842	67.0	-200.0	-66.66156904725494	2.2624996852293444	15.0	4220.0	1.9406854541179066	
2031.0	0.47589145416472056	1198.0	10.684383511710145	0.12206104260717544	2051.0	0.0	33903.0	9034.637451171875	0.6775	792.0	0.6133603238866396	-107.0	-0.4817813765182186	45.0	34.0	55.28368252026304	-2.7481079626792284	26.0	-3754.0	-1.7000297983624069	
2032.0	1.767477520427872	1343.0	8.890609185644353	0.08705322397740671	1941.0	0.0	34543.0	9054.168701171875	0.6775	792.0	0.6133603238866396	-107.0	-0.4817813765182186	45.0	-38.0	20.06423000458786	-1.4581826250133458	33.0	-1451.0	-0.582327721600755	
2031.0	1.067552630088924	1324.0	9.136215389844784	0.09701429192911022	2000.0	0.0	35183.0	9073.699951171875	0.6775	792.0	0.6133603238866396	-107.0	-0.4817813765182186	45.0	21.0	66.9062547790182	-2.138309193846787	-44.0	-4514.0	-1.494453523118459	
2046.0	-0.3656235835073056	1169.0	11.056689268317061	-0.0596308842036716	2122.0	0.0	35823.0	9093.231201171875	0.7325	814.0	0.5364372469635628	-145.0	-0.4757085020242915	42.0	199.0	187.13870622419333	-5.93545042799255	-108.0	-12376.0	-4.26374302660615	
2034.0	-0.004344412544026871	1232.0	10.279844459883025	0.07302332459029257	2091.0	0.0	36463.0	9112.762451171875	0.7325	814.0	0.5364372469635628	-145.0	-0.4757085020242915	42.0	-143.0	-50.89463220675945	0.7177881053654256	75.0	3189.0	1.050602769806148	
2033.0	0.053093893430007394	1249.0	10.071294104905501	0.08147489332156672	2086.0	0.0	37103.0	9132.293701171875	0.7325	814.0	0.5364372469635628	-145.0	-0.4757085020242915	42.0	-46.0	-11.683743691695978	-0.7433236816013138	69.0	625.0	-0.45242326290163537	
2033.0	-0.053296022610872754	1243.0	10.1465882151032	0.08191687636511193	2095.0	0.0	37743.0	9151.824951171875	0.7375	816.0	0.5242914979757085	-151.0	-0.4858299595141701	47.0	-13.0	9.22159351582811	-1.0668269267726096	36.0	-742.0	-0.9620262560714702	
2033.0	0.029654860426492666	1246.0	10.10834318550641	0.08198148460354976	2088.0	0.0	38383.0	9171.356201171875	0.7375	816.0	0.5242914979757085	-151.0	-0.4858299595141701	47.0	-26.0	2.186878727634195	-1.0643138493543163	54.0	-282.0	-0.7625228377416635	
2032.0	0.029653656090154426	1246.0	10.108222751872585	0.09402725665859424	2088.0	0.0	39023.0	9190.887451171875	0.7375	816.0	0.5242914979757085	-151.0	-0.4858299595141701	47.0	-46.0	-0.5352500382321457	-0.8200817786952709	45.0	-104.0	-0.45319084387257497	
2033.0	0.07714243811689805	1247.0	10.095196192642186	0.08219342052316933	2084.0	0.0	39663.0	9210.418701171875	0.7375	816.0	0.5242914979757085	-151.0	-0.4858299595141701	47.0	-8.0	-3.043278788805628	-0.7447017606536221	47.0	60.0	-1.035527422700905	
2033.0	0.06524006811012792	1247.0	10.095435382441362	0.08207918061908516	2085.0	0.0	40303.0	9229.949951171875	0.73	813.0	0.5323886639676113	-147.0	-0.5101214574898786	59.0	-24.0	0.16822144058724578	-0.9217459294521182	50.0	-150.0	-0.7917861258588913	
2035.0	0.11248624979985938	1250.0	10.05814878950975	0.057709525035181536	2081.0	0.0	40943.0	9249.481201171875	0.73	813.0	0.5323886639676113	-147.0	-0.5101214574898786	59.0	-25.0	0.9022786358770455	-1.0127815540769767	54.0	-198.0	-0.7773519984470151	
2035.0	0.041681541442614475	1245.0	10.1205350966424	0.0582492040942621	2087.0	0.0	41583.0	9269.012451171875	0.73	813.0	0.5323886639676113	-147.0	-0.5101214574898786	59.0	-45.0	2.584493041749503	-1.0062284379311799	49.0	-308.0	-0.47039679412305896	
2034.0	0.017753694756060756	1246.0	10.108702808939409	0.0698214726444211	2089.0	0.0	42223.0	9288.543701171875	0.7425	818.0	0.52834008097166	-149.0	-0.5020242914979757	55.0	-41.0	2.966814497629607	-0.6210075679026011	23.0	-333.0	-0.5279225200552728	
2031.0	-0.04176176828680467	1246.0	10.10953745703382	0.10538758928913367	2094.0	0.0	42863.0	9308.074951171875	0.7425	818.0	0.52834008097166	-149.0	-0.5020242914979757	55.0	-56.0	3.5632359688025694	-1.0163005432355918	47.0	-372.0	-0.3017081949367291	
2037.0	0.0647572761087801	1251.0	10.047156182306582	0.03291599761203873	2085.0	0.0	43503.0	9327.606201171875	0.7425	818.0	0.52834008097166	-149.0	-0.5020242914979757	55.0	-51.0	2.1562930111637866	-0.8362156181613462	39.0	-280.0	-0.37662976397661124	
2035.0	0.017632996755723815	1247.0	10.096633008905716	0.05753067689265948	2089.0	0.0	44143.0	9347.137451171875	0.7425	818.0	0.52834008097166	-149.0	-0.5020242914979757	55.0	-56.0	0.22939287352806242	-0.9444829967184112	51.0	-154.0	-0.30099001947155735	
2036.0	0.04095133175890159	1251.0	10.04751412827111	0.04473328985891484	2087.0	0.0	44783.0	9366.668701171875	0.74	817.0	0.5222672064777328	-152.0	-0.5121457489878543	60.0	-60.0	-0.382321455880104	-1.0590569854526186	60.0	-114.0	-0.24075782472639978	
2034.0	0.041192727759575484	1249.0	10.071653728338502	0.06931488136243805	2087.0	0.0	45423.0	9386.199951171875	0.74	817.0	0.5222672064777328	-152.0	-0.5121457489878543	60.0	-49.0	-1.8657287046949076	-0.9672774824783562	58.0	-17.0	-0.4086293499360311	
2034.0	0.10058267545675101	1250.0	10.0582675456751	0.06964105718614183	2082.0	0.0	46063.0	9405.731201171875	0.74	817.0	0.5222672064777328	-152.0	-0.5121457489878543	60.0	-44.0	-1.7128001223428662	-0.8342004693277643	49.0	-27.0	-0.4840209980951497	
2028.0	-0.1837405050203348	1239.0	10.197378069395096	0.14186919248227686	2106.0	0.0	46703.0	9425.262451171875	0.73	813.0	0.4939271255060729	-166.0	-0.52834008097166	68.0	-70.0	0.48937146352653316	-1.2492626188792235	70.0	-171.0	-0.08921504447941676	
2034.0	0.06524127244646614	1247.0	10.095555816075187	0.07003340856404067	2085.0	0.0	47343.0	9444.793701171875	0.73	813.0	0.4939271255060729	-166.0	-0.52834008097166	68.0	-69.0	0.061171432940816645	-0.9397493953306164	51.0	-143.0	-0.10146439590205561	
2034.0	0.00572942241261544	1247.0	10.096751765071067	0.06946220904361977	2090.0	0.0	47983.0	9464.324951171875	0.73	813.0	0.4939271255060729	-166.0	-0.52834008097166	68.0	-71.0	-0.5199571799969415	-0.9168134340823934	51.0	-105.0	-0.07054606897332355	
2035.0	0.029657269099169145	1246.0	10.108584052774058	0.0578899404934608	2088.0	0.0	48623.0	9483.856201171875	0.745	819.0	0.5182186234817814	-154.0	-0.5080971659919028	58.0	-83.0	-0.474078605291329	-0.966631679939368	54.0	-108.0	0.11308955246560556	
2033.0	0.017630588083047335	1247.0	10.096392141638068	0.08162222100274845	2089.0	0.0	49263.0	9503.387451171875	0.745	819.0	0.5182186234817814	-154.0	-0.5080971659919028	58.0	-65.0	-0.7034714788193914	-1.01621799484744	58.0	-93.0	-0.16360701652972345	
2034.0	0.02941226008948053	1248.0	10.084083151805196	0.06944566515507103	2088.0	0.0	49903.0	9522.918701171875	0.745	819.0	0.5182186234817814	-154.0	-0.5080971659919028	58.0	-84.0	-1.330478666462762	-1.0401975079398007	61.0	-52.0	0.12769837784372615	
2033.0	0.053215795766682575	1248.0	10.083484338573019	0.08171991701828386	2086.0	0.0	50543.0	9542.449951171875	0.745	819.0	0.5182186234817814	-154.0	-0.5080971659919028	58.0	-77.0	-1.4681143905795995	-1.1105221770760796	66.0	-43.0	0.019583745545489015	
2035.0	0.07677913977954895	1250.0	10.058866358907277	0.05736680532292901	2084.0	0.0	51183.0	9561.981201171875	0.735	815.0	0.5141700404858299	-156.0	-0.5242914979757085	66.0	-76.0	-1.605750114696437	-1.135625290733033	68.0	-34.0	0.003988230750794576	
2034.0	0.053338902439696	1247.0	10.095795005874363	0.06991916865995648	2086.0	0.0	51823.0	9581.512451171875	0.735	815.0	0.5141700404858299	-156.0	-0.5242914979757085	66.0	-68.0	0.09175714941122497	-1.0331035370474013	57.0	-145.0	-0.11774242097734836	
2035.0	0.01787680142907419	1245.0	10.121013476240753	0.058020724286093756	2089.0	0.0	52463.0	9601.043701171875	0.735	815.0	0.5141700404858299	-156.0	-0.5242914979757085	66.0	-78.0	2.7068359076311364	-1.1084691014159997	55.0	-316.0	0.03494875996021472	
2034.0	0.0297779670995061	1245.0	10.120653852807752	0.07018073624522242	2088.0	0.0	53103.0	9620.574951171875	0.7375	816.0	0.5060728744939271	-160.0	-0.5141700404858299	61.0	-84.0	0.9787429270530663	-1.2709835330410062	70.0	-203.0	0.1253905175927141	
2034.0	0.041680337106276236	1245.0	10.120414663008576	0.07029497614930658	2087.0	0.0	53743.0	9640.106201171875	0.7375	816.0	0.5060728744939271	-160.0	-0.5141700404858299	61.0	-78.0	1.131671509405108	-1.1223723795830767	60.0	-213.0	0.034809727178543956	
2033.0	0.04131342575991243	1248.0	10.083723528372197	0.08160567711419969	2087.0	0.0	54383.0	9659.637451171875	0.7375	816.0	0.5060728744939271	-160.0	-0.5141700404858299	61.0	-59.0	0.2752714482336749	-1.1159660636423436	62.0	-157.0	-0.2566713991664219	
2033.0	0.029532958089817485	1247.0	10.096152951838892	0.08173646090683262	2088.0	0.0	55023.0	9679.168701171875	0.7375	816.0	0.5060728744939271	-160.0	-0.5141700404858299	61.0	-57.0	1.6210429729316411	-1.2310075263499767	66.0	-245.0	-0.2885107811097481	
2036.0	0.017878005765412416	1245.0	10.121133909874576	0.045974952231049276	2089.0	0.0	55663.0	9698.699951171875	0.74	817.0	0.5121457489878543	-157.0	-0.5101214574898786	59.0	-49.0	4.587857470561248	-1.2100144069113723	57.0	-439.0	-0.41105671918036124	
2035.0	0.017754899092398996	1246.0	10.108823242573234	0.057775700589376616	2089.0	0.0	56303.0	9718.231201171875	0.74	817.0	0.5121457489878543	-157.0	-0.5101214574898786	59.0	-65.0	4.434928888209207	-1.390921276933032	69.0	-429.0	-0.16735404935057938	
