Device	Device	Device	Device	Device	Device	Device	Device	Device	Device	Device	Device	Device	Device	Device	Device	Device	Device	Device	Device	Device	
Low Noise Accelerometer X	Low Noise Accelerometer X	Low Noise Accelerometer Z	Low Noise Accelerometer Z	Low Noise Accelerometer Y	Low Noise Accelerometer Y	Event_Marker	Timestamp	Timestamp	Magnetometer Z	Magnetometer Z	Magnetometer X	Magnetometer X	Magnetometer Y	Magnetometer Y	Gyroscope Y	Gyroscope Y	Gyroscope Z	Gyroscope Z	Gyroscope X	Gyroscope X	
UNCAL	CAL	CAL	UNCAL	UNCAL	CAL	CAL	CAL	UNCAL	CAL	UNCAL	CAL	UNCAL	UNCAL	CAL	CAL	UNCAL	CAL	UNCAL	CAL	UNCAL	
no units	m/(s^2)	m/(s^2)	no units	no units	m/(s^2)	no units	ms	no units	local_flux	no units	local_flux	no units	no units	local_flux	deg/s	no units	deg/s	no units	deg/s	no units	
2019.0	0.10056461041167745	10.056461041167745	1250.0	2082.0	0.2503276380118091	0.0	1209.442138671875	39631.0	0.73	813.0	-0.48785425101214575	-651.0	-248.0	0.11133603238866396	0.0	-66.0	-1.1367917347715262	64.0	-0.14946827027083942	-139.0	
2017.0	0.08878173406890603	10.068649597366795	1249.0	2083.0	0.27454996591453096	0.0	1228.973388671875	40271.0	0.73	813.0	-0.48785425101214575	-651.0	-248.0	0.11133603238866396	0.030585716470408322	-57.0	-1.2135377297255507	69.0	-0.28833608314350384	-141.0	
2017.0	0.08865983173223084	10.056459363699275	1250.0	2083.0	0.2743049422178139	0.0	1248.504638671875	40911.0	0.73	813.0	-0.4959514170040486	-655.0	-240.0	0.0951417004048583	-0.061171432940816645	-69.0	-1.0886632781549381	61.0	-0.1029535347302988	-135.0	
2017.0	0.07687936406213589	10.068888787165971	1249.0	2084.0	0.27443572601044675	0.0	1268.035888671875	41551.0	0.73	813.0	-0.4959514170040486	-655.0	-240.0	0.0951417004048583	0.10705000764642914	-63.0	-1.1559937292529785	65.0	-0.19569374119002866	-146.0	
2016.0	0.0887805297325678	10.06852916373297	1249.0	2083.0	0.28659573796957544	0.0	1287.567138671875	42191.0	0.73	813.0	-0.4959514170040486	-655.0	-240.0	0.0951417004048583	0.16822144058724578	-65.0	-1.0664629360143758	59.0	-0.16410946594139283	-150.0	
2017.0	0.07687936406213589	10.068888787165971	1249.0	2084.0	0.27443572601044675	0.0	1307.098388671875	42831.0	0.725	811.0	-0.49190283400809715	-653.0	-255.0	0.12550607287449392	0.18351429882244993	-63.0	-1.0821484410049094	60.0	-0.19495528830754796	-151.0	
2018.0	0.08866103606856907	10.056579797333098	1250.0	2083.0	0.26225917016276934	0.0	1326.629638671875	43471.0	0.725	811.0	-0.49190283400809715	-653.0	-255.0	0.12550607287449392	0.10705000764642914	-66.0	-1.1872154393612855	67.0	-0.14997250731673703	-146.0	
2018.0	0.07688056839847413	10.069009220799794	1249.0	2084.0	0.26238995395540227	0.0	1346.160888671875	44111.0	0.725	811.0	-0.49190283400809715	-653.0	-255.0	0.12550607287449392	-0.061171432940816645	-74.0	-1.074049714809392	60.0	-0.026084980806218825	-135.0	
2017.0	0.06509889639204092	10.081318210632665	1248.0	2085.0	0.27456650980307973	0.0	1365.692138671875	44751.0	0.725	811.0	-0.49190283400809715	-653.0	-255.0	0.12550607287449392	0.18351429882244993	-80.0	-0.9770917667007123	53.0	0.0669515006236174	-151.0	
2020.0	0.0768829770711506	10.069250088067442	1249.0	2084.0	0.23829840984531334	0.0	1385.223388671875	45391.0	0.7275	812.0	-0.49190283400809715	-653.0	-258.0	0.13157894736842105	-0.04587857470561248	-57.0	-0.9028652476309803	49.0	-0.28522935832255814	-136.0	
2019.0	0.06485750039136703	10.057178610565275	1250.0	2085.0	0.24998491829955652	0.0	1404.754638671875	46031.0	0.7275	812.0	-0.49190283400809715	-653.0	-258.0	0.13157894736842105	0.0	-67.0	-1.1677065858925693	66.0	-0.13443293512392493	-139.0	
2018.0	0.08878293840524426	10.068770031000618	1249.0	2083.0	0.2625041938594865	0.0	1424.285888671875	46671.0	0.7275	812.0	-0.49190283400809715	-653.0	-258.0	0.13157894736842105	-0.10705000764642914	-73.0	-0.9028735068727234	49.0	-0.039717702384977044	-132.0	
2017.0	0.07687936406213589	10.068888787165971	1249.0	2084.0	0.27443572601044675	0.0	1443.817138671875	47311.0	0.735	815.0	-0.4979757085020243	-656.0	-253.0	0.12145748987854252	0.1529285823520416	-67.0	-0.9277317445141975	50.0	-0.13203318671014122	-149.0	
2017.0	0.08878173406890603	10.068649597366795	1249.0	2083.0	0.27454996591453096	0.0	1463.348388671875	47951.0	0.735	815.0	-0.4979757085020243	-656.0	-253.0	0.12145748987854252	0.04587857470561248	-65.0	-1.123092553956464	63.0	-0.1646757621208137	-142.0	
2018.0	0.07688056839847413	10.069009220799794	1249.0	2084.0	0.26238995395540227	0.0	1482.879638671875	48591.0	0.735	815.0	-0.4979757085020243	-656.0	-253.0	0.12145748987854252	-0.030585716470408322	-68.0	-1.0897331549894897	61.0	-0.11830871715676923	-137.0	
2019.0	0.06497940272804223	10.069368844232795	1249.0	2085.0	0.25022994199627363	0.0	1502.410888671875	49231.0	0.735	815.0	-0.4979757085020243	-656.0	-253.0	0.12145748987854252	0.015292858235204161	-63.0	-1.1215623886410166	63.0	-0.19534942778390904	-140.0	
2019.0	0.07675987039813717	10.0569394207661	1250.0	2084.0	0.2500991582036407	0.0	1521.942138671875	49871.0	0.7325	814.0	-0.4959514170040486	-655.0	-255.0	0.12550607287449392	-0.015292858235204161	-71.0	-1.106185807448183	62.0	-0.07243979270698145	-138.0	
2018.0	0.10068530841201441	10.068530841201442	1249.0	2082.0	0.26261843376357064	0.0	1541.473388671875	50511.0	0.7325	814.0	-0.4959514170040486	-655.0	-255.0	0.12550607287449392	0.0764642911760208	-75.0	-1.0181851795250274	56.0	-0.010181851795250272	-144.0	
2019.0	0.07688177273481236	10.069129654433619	1249.0	2084.0	0.2503441819003578	0.0	1561.004638671875	51151.0	0.7325	814.0	-0.4959514170040486	-655.0	-255.0	0.12550607287449392	-0.18351429882244993	-68.0	-1.0836166233485722	61.0	-0.11824755184036005	-127.0	
2019.0	0.07675987039813717	10.0569394207661	1250.0	2084.0	0.2500991582036407	0.0	1580.535888671875	51791.0	0.7225	810.0	-0.4959514170040486	-655.0	-243.0	0.10121457489878542	0.04587857470561248	-71.0	-1.1701552633593721	66.0	-0.07307948726609334	-142.0	
2017.0	0.06497699405536575	10.069127976965147	1249.0	2085.0	0.2743214861063626	0.0	1600.067138671875	52431.0	0.7225	810.0	-0.4959514170040486	-655.0	-243.0	0.10121457489878542	0.1988071570576541	-63.0	-1.205805780678646	68.0	-0.19619186170428532	-152.0	
2016.0	0.0887805297325678	10.06852916373297	1249.0	2083.0	0.28659573796957544	0.0	1619.598388671875	53071.0	0.7225	810.0	-0.4959514170040486	-655.0	-243.0	0.10121457489878542	0.015292858235204161	-60.0	-1.2595284974834715	72.0	-0.24276253984670831	-140.0	
2018.0	0.08866103606856907	10.056579797333098	1250.0	2083.0	0.26225917016276934	0.0	1639.129638671875	53711.0	0.73	813.0	-0.5080971659919028	-661.0	-244.0	0.10323886639676114	0.1529285823520416	-73.0	-1.1747436944952783	66.0	-0.04243640426120259	-149.0	
2018.0	0.0770024707351493	10.081199454467312	1248.0	2084.0	0.2626349776521194	0.0	1658.660888671875	54351.0	0.73	813.0	-0.5080971659919028	-661.0	-244.0	0.10323886639676114	0.061171432940816645	-65.0	-1.1852270503753781	67.0	-0.16529710708500286	-143.0	
2016.0	0.0887805297325678	10.06852916373297	1249.0	2083.0	0.28659573796957544	0.0	1678.192138671875	54991.0	0.73	813.0	-0.5080971659919028	-661.0	-244.0	0.10323886639676114	0.18351429882244993	-74.0	-1.1145975870622713	62.0	-0.026490459528747616	-151.0	
2018.0	0.08878293840524426	10.068770031000618	1249.0	2083.0	0.2625041938594865	0.0	1697.723388671875	55631.0	0.73	813.0	-0.5080971659919028	-661.0	-244.0	0.10323886639676114	0.24468573176326658	-67.0	-1.1005894824495095	61.0	-0.13376176408949433	-155.0	
2018.0	0.0771243730718245	10.093389688134831	1247.0	2084.0	0.26288000134883655	0.0	1717.254638671875	56271.0	0.7325	814.0	-0.48380566801619435	-649.0	-261.0	0.13765182186234817	0.13763572411683744	-65.0	-1.080620340499898	60.0	-0.16425103998624804	-148.0	
2018.0	0.0648562960550288	10.05705817693145	1250.0	2085.0	0.262030690354601	0.0	1736.785888671875	56911.0	0.7325	814.0	-0.48380566801619435	-649.0	-261.0	0.13765182186234817	-0.015292858235204161	-64.0	-1.0282082469242315	57.0	-0.17907140270861627	-138.0	
2019.0	0.0887841427415825	10.068890464634443	1249.0	2083.0	0.250458421804442	0.0	1756.317138671875	57551.0	0.7325	814.0	-0.48380566801619435	-649.0	-261.0	0.13765182186234817	0.030585716470408322	-74.0	-1.1392424770487648	64.0	-0.026736908428612552	-141.0	
2018.0	0.10068530841201441	10.068530841201442	1249.0	2082.0	0.26261843376357064	0.0	1775.848388671875	58191.0	0.7175	808.0	-0.4858299595141701	-650.0	-237.0	0.08906882591093118	0.0764642911760208	-69.0	-1.094168156631764	61.0	-0.10300858351506707	-144.0	
2018.0	0.08878293840524426	10.068770031000618	1249.0	2083.0	0.2625041938594865	0.0	1795.379638671875	58831.0	0.7175	808.0	-0.4858299595141701	-650.0	-237.0	0.08906882591093118	0.030585716470408322	-67.0	-1.1381684705933417	64.0	-0.13413755397093266	-141.0	
2018.0	0.0648562960550288	10.05705817693145	1250.0	2085.0	0.262030690354601	0.0	1814.910888671875	59471.0	0.7175	808.0	-0.4858299595141701	-650.0	-237.0	0.08906882591093118	0.16822144058724578	-69.0	-1.1901223404985481	67.0	-0.10396812535373491	-150.0	
2018.0	0.07688056839847413	10.069009220799794	1249.0	2084.0	0.26238995395540227	0.0	1834.442138671875	60111.0	0.7175	808.0	-0.4858299595141701	-650.0	-237.0	0.08906882591093118	0.0	-62.0	-0.9362287762188262	51.0	-0.20884057531781203	-139.0	
2017.0	0.08890363640558122	10.080839831034313	1248.0	2083.0	0.2747949896112481	0.0	1853.973388671875	60751.0	0.7325	814.0	-0.4858299595141701	-650.0	-258.0	0.13157894736842105	0.16822144058724578	-61.0	-1.004326374785026	55.0	-0.22486603496159896	-150.0	
2019.0	0.0887841427415825	10.068890464634443	1249.0	2083.0	0.250458421804442	0.0	1873.504638671875	61391.0	0.7325	814.0	-0.4858299595141701	-650.0	-258.0	0.13157894736842105	0.0	-72.0	-1.2453772874292566	71.0	-0.05848722384866729	-139.0	
2019.0	0.10068651274835265	10.068651274835265	1249.0	2082.0	0.25057266170852616	0.0	1893.035888671875	62031.0	0.7325	814.0	-0.4858299595141701	-650.0	-258.0	0.13157894736842105	-0.030585716470408322	-67.0	-1.1049604363095635	62.0	-0.13380547362809486	-137.0	
2018.0	0.0770024707351493	10.081199454467312	1248.0	2084.0	0.2626349776521194	0.0	1912.567138671875	62671.0	0.7275	812.0	-0.4898785425101215	-652.0	-248.0	0.11133603238866396	0.1988071570576541	-60.0	-1.128441938129222	63.0	-0.2414516742531658	-152.0	
2018.0	0.07688056839847413	10.069009220799794	1249.0	2084.0	0.26238995395540227	0.0	1932.098388671875	63311.0	0.7275	812.0	-0.4898785425101215	-652.0	-248.0	0.11133603238866396	-0.061171432940816645	-57.0	-1.0560607026039444	59.0	-0.2867613128722878	-135.0	
2019.0	0.07700367507148755	10.081319888101136	1248.0	2084.0	0.2505892055970749	0.0	1951.629638671875	63951.0	0.7275	812.0	-0.4898785425101215	-652.0	-248.0	0.11133603238866396	-0.061171432940816645	-64.0	-1.0417539982456618	58.0	-0.17920686022183058	-135.0	
2018.0	0.10080721074868959	10.08072107486896	1248.0	2082.0	0.2628634574602878	0.0	1971.160888671875	64591.0	0.735	815.0	-0.47975708502024295	-647.0	-260.0	0.13562753036437247	-0.10705000764642914	-70.0	-1.117743169783706	63.0	-0.08789984998846159	-132.0	
2019.0	0.06485750039136703	10.057178610565275	1250.0	2085.0	0.24998491829955652	0.0	1990.692138671875	65231.0	0.735	815.0	-0.47975708502024295	-647.0	-260.0	0.13562753036437247	0.16822144058724578	-64.0	-0.9740252416385103	53.0	-0.17852957265575908	-150.0	
2018.0	0.0770024707351493	10.081199454467312	1248.0	2084.0	0.2626349776521194	0.0	2010.223388671875	335.0	0.735	815.0	-0.47975708502024295	-647.0	-260.0	0.13562753036437247	0.0764642911760208	-69.0	-1.1864524215139975	67.0	-0.10393142616388941	-144.0	
2017.0	0.07687936406213589	10.068888787165971	1249.0	2084.0	0.27443572601044675	0.0	2029.754638671875	975.0	0.735	815.0	-0.47975708502024295	-647.0	-260.0	0.13562753036437247	0.16822144058724578	-70.0	-1.0210879510414186	56.0	-0.08693329780103871	-150.0	
2018.0	0.07688056839847413	10.069009220799794	1249.0	2084.0	0.26238995395540227	0.0	2049.285888671875	1615.0	0.725	811.0	-0.48380566801619435	-649.0	-257.0	0.12955465587044535	0.13763572411683744	-67.0	-1.0040236454186338	55.0	-0.13279610571918557	-148.0	
2018.0	0.08878293840524426	10.068770031000618	1249.0	2083.0	0.2625041938594865	0.0	2068.817138671875	2255.0	0.725	811.0	-0.48380566801619435	-649.0	-257.0	0.12955465587044535	-0.12234286588163329	-69.0	-0.9939324006163377	55.0	-0.10200622595491281	-131.0	
2018.0	0.08878293840524426	10.068770031000618	1249.0	2083.0	0.2625041938594865	0.0	2088.348388671875	2895.0	0.725	811.0	-0.48380566801619435	-649.0	-257.0	0.12955465587044535	-0.04587857470561248	-75.0	-1.1824797731630547	67.0	-0.011824797731630548	-136.0	
2019.0	0.07700367507148755	10.081319888101136	1248.0	2084.0	0.2505892055970749	0.0	2107.879638671875	3535.0	0.73	813.0	-0.4777327935222672	-646.0	-258.0	0.13157894736842105	0.015292858235204161	-66.0	-0.9374541473574455	51.0	-0.1474748943966986	-140.0	
2017.0	0.08878173406890603	10.068649597366795	1249.0	2083.0	0.27454996591453096	0.0	2127.410888671875	4175.0	0.73	813.0	-0.4777327935222672	-646.0	-258.0	0.13157894736842105	-0.030585716470408322	-69.0	-1.012983030414594	56.0	-0.10219673225289537	-137.0	
2020.0	0.08866344474124555	10.056820664600746	1250.0	2083.0	0.23816762605268038	0.0	2146.942138671875	4815.0	0.73	813.0	-0.4777327935222672	-646.0	-258.0	0.13157894736842105	0.1529285823520416	-69.0	-0.9280386035014613	50.0	-0.10134728798376405	-149.0	
2020.0	0.0768829770711506	10.069250088067442	1249.0	2084.0	0.23829840984531334	0.0	2166.473388671875	5455.0	0.73	813.0	-0.4777327935222672	-646.0	-258.0	0.13157894736842105	-0.015292858235204161	-53.0	-1.1803276306313368	67.0	-0.3493819167850613	-138.0	
2016.0	0.07700006206247284	10.080958587199664	1248.0	2084.0	0.28672652176220836	0.0	2186.004638671875	6095.0	0.7225	810.0	-0.4979757085020243	-656.0	-232.0	0.07894736842105263	0.09175714941122497	-65.0	-1.0172625377528004	56.0	-0.16361746195877708	-145.0	
2019.0	0.07688177273481236	10.069129654433619	1249.0	2084.0	0.2503441819003578	0.0	2205.535888671875	6735.0	0.7225	810.0	-0.4979757085020243	-656.0	-232.0	0.07894736842105263	0.09175714941122497	-75.0	-0.9418932786205911	51.0	-0.00941893278620591	-145.0	
2020.0	0.06485870472770526	10.057299044199098	1250.0	2085.0	0.23793914624451204	0.0	2225.067138671875	7375.0	0.7225	810.0	-0.4979757085020243	-656.0	-232.0	0.07894736842105263	-0.10705000764642914	-68.0	-1.1328170216101476	64.0	-0.11873955582297581	-132.0	
2019.0	0.0887841427415825	10.068890464634443	1249.0	2083.0	0.250458421804442	0.0	2244.598388671875	8015.0	0.725	811.0	-0.4898785425101215	-652.0	-259.0	0.13360323886639677	0.030585716470408322	-68.0	-1.1075604784595625	62.0	-0.11848699039146997	-141.0	
2019.0	0.0886622404049073	10.056700230966923	1250.0	2083.0	0.25021339810772486	0.0	2264.129638671875	8655.0	0.725	811.0	-0.4898785425101215	-652.0	-259.0	0.13360323886639677	-0.04587857470561248	-66.0	-1.1810989077203677	67.0	-0.14991134200032785	-136.0	
2017.0	0.08878173406890603	10.068649597366795	1249.0	2083.0	0.27454996591453096	0.0	2283.660888671875	9295.0	0.725	811.0	-0.4898785425101215	-652.0	-259.0	0.13360323886639677	0.16822144058724578	-72.0	-1.067536942469799	59.0	-0.056708820399072705	-150.0	
2019.0	0.0887841427415825	10.068890464634443	1249.0	2083.0	0.250458421804442	0.0	2303.192138671875	9935.0	0.735	815.0	-0.48785425101214575	-651.0	-264.0	0.1437246963562753	0.16822144058724578	-63.0	-1.0969174986545231	61.0	-0.19510297888404413	-150.0	
2017.0	0.08865983173223084	10.056459363699275	1250.0	2083.0	0.2743049422178139	0.0	2322.723388671875	10575.0	0.735	815.0	-0.48785425101214575	-651.0	-264.0	0.1437246963562753	-0.0764642911760208	-61.0	-1.1175856106692024	63.0	-0.2259986273204407	-134.0	
2017.0	0.07675746172546069	10.056698553498451	1250.0	2084.0	0.27419070231372966	0.0	2342.254638671875	11215.0	0.735	815.0	-0.48785425101214575	-651.0	-264.0	0.1437246963562753	0.0764642911760208	-75.0	-0.9720430470839105	53.0	-0.009720430470839106	-144.0	
2019.0	0.10056461041167745	10.056461041167745	1250.0	2082.0	0.2503276380118091	0.0	2361.785888671875	11855.0	0.735	815.0	-0.48785425101214575	-651.0	-264.0	0.1437246963562753	-0.015292858235204161	-75.0	-1.0452766821678878	58.0	-0.01045276682167888	-138.0	
2018.0	0.06497819839170399	10.06924841059897	1249.0	2085.0	0.2622757140513181	0.0	2381.317138671875	12495.0	0.7125	806.0	-0.4757085020242915	-645.0	-257.0	0.12955465587044535	-0.061171432940816645	-73.0	-1.1815612610116992	67.0	-0.0425045799263668	-135.0	
2018.0	0.07688056839847413	10.069009220799794	1249.0	2084.0	0.26238995395540227	0.0	2400.848388671875	13135.0	0.7125	806.0	-0.4757085020242915	-645.0	-257.0	0.12955465587044535	0.015292858235204161	-73.0	-1.10771597276363	62.0	-0.04176612704388612	-140.0	
2018.0	0.08878293840524426	10.068770031000618	1249.0	2083.0	0.2625041938594865	0.0	2420.379638671875	13775.0	0.7125	806.0	-0.4757085020242915	-645.0	-257.0	0.12955465587044535	0.04587857470561248	-69.0	-1.2313712476269307	70.0	-0.10438061442501874	-142.0	
2017.0	0.07687936406213589	10.068888787165971	1249.0	2084.0	0.27443572601044675	0.0	2439.910888671875	14415.0	0.725	811.0	-0.5182186234817814	-666.0	-249.0	0.11336032388663968	-0.10705000764642914	-77.0	-1.2111014411213625	69.0	0.018577952905036187	-132.0	
2018.0	0.0770024707351493	10.081199454467312	1248.0	2084.0	0.2626349776521194	0.0	2459.442138671875	15055.0	0.725	811.0	-0.5182186234817814	-666.0	-249.0	0.11336032388663968	0.04587857470561248	-78.0	-1.140467848187384	64.0	0.034628772492500876	-142.0	
2018.0	0.08878293840524426	10.068770031000618	1249.0	2083.0	0.2625041938594865	0.0	2478.973388671875	15695.0	0.725	811.0	-0.5182186234817814	-666.0	-249.0	0.11336032388663968	-0.12234286588163329	-70.0	-1.0709893841784974	60.0	-0.08743231213240951	-131.0	
2018.0	0.08878293840524426	10.068770031000618	1249.0	2083.0	0.2625041938594865	0.0	2498.504638671875	16335.0	0.725	811.0	-0.5182186234817814	-666.0	-249.0	0.11336032388663968	-0.04587857470561248	-72.0	-1.151258063054748	65.0	-0.0575460316049222	-136.0	
2018.0	0.052953926048258645	10.057297366730626	1250.0	2086.0	0.2619164504505168	0.0	2518.035888671875	16975.0	0.725	811.0	-0.4817813765182186	-648.0	-251.0	0.11740890688259109	0.04587857470561248	-84.0	-1.0644848710806476	59.0	0.1274555042123177	-142.0	
2019.0	0.07688177273481236	10.069129654433619	1249.0	2084.0	0.2503441819003578	0.0	2537.567138671875	17615.0	0.725	811.0	-0.4817813765182186	-648.0	-251.0	0.11740890688259109	0.061171432940816645	-72.0	-1.01711323788004	56.0	-0.05620458335317512	-143.0	
2019.0	0.0887841427415825	10.068890464634443	1249.0	2083.0	0.250458421804442	0.0	2557.098388671875	18255.0	0.725	811.0	-0.4817813765182186	-648.0	-251.0	0.11740890688259109	0.0764642911760208	-67.0	-1.1246227192719112	63.0	-0.13400209645771835	-144.0	
2017.0	0.06497699405536575	10.069127976965147	1249.0	2085.0	0.2743214861063626	0.0	2576.629638671875	18895.0	0.7275	812.0	-0.47975708502024295	-647.0	-253.0	0.12145748987854252	0.13763572411683744	-74.0	-0.8820519653644122	47.0	-0.024165003311769025	-148.0	
2017.0	0.07687936406213589	10.068888787165971	1249.0	2084.0	0.27443572601044675	0.0	2596.160888671875	19535.0	0.7275	812.0	-0.47975708502024295	-647.0	-253.0	0.12145748987854252	0.1988071570576541	-64.0	-1.0367713912215162	57.0	-0.17915703415158912	-152.0	
2018.0	0.0648562960550288	10.05705817693145	1250.0	2085.0	0.262030690354601	0.0	2615.692138671875	20175.0	0.7275	812.0	-0.47975708502024295	-647.0	-253.0	0.12145748987854252	0.1529285823520416	-60.0	-1.018942002941008	56.0	-0.24035667490128365	-149.0	
2019.0	0.0887841427415825	10.068890464634443	1249.0	2083.0	0.250458421804442	0.0	2635.223388671875	20815.0	0.715	807.0	-0.47975708502024295	-647.0	-243.0	0.10121457489878542	0.13763572411683744	-74.0	-1.143524049197407	64.0	-0.026779724150098976	-148.0	
2018.0	0.07688056839847413	10.069009220799794	1249.0	2084.0	0.26238995395540227	0.0	2654.754638671875	21455.0	0.715	807.0	-0.47975708502024295	-647.0	-243.0	0.10121457489878542	0.030585716470408322	-73.0	-0.954520517790666	52.0	-0.04023417249415647	-141.0	
2018.0	0.08890484074191946	10.080960264668136	1248.0	2083.0	0.2627492175562036	0.0	2674.285888671875	22095.0	0.715	807.0	-0.47975708502024295	-647.0	-243.0	0.10121457489878542	0.061171432940816645	-73.0	-1.1864544863244333	67.0	-0.04255351217949414	-143.0	
2018.0	0.06510010072837916	10.081438644266488	1248.0	2085.0	0.26252073774803525	0.0	2693.817138671875	22735.0	0.715	807.0	-0.47975708502024295	-647.0	-243.0	0.10121457489878542	-0.015292858235204161	-68.0	-1.1057255189672872	62.0	-0.11846864079654722	-138.0	
2019.0	0.07688177273481236	10.069129654433619	1249.0	2084.0	0.2503441819003578	0.0	2713.348388671875	23375.0	0.7275	812.0	-0.48785425101214575	-651.0	-235.0	0.08502024291497975	-0.10705000764642914	-69.0	-1.1022090294763685	62.0	-0.10308899224351312	-132.0	
2019.0	0.07688177273481236	10.069129654433619	1249.0	2084.0	0.2503441819003578	0.0	2732.879638671875	24015.0	0.7275	812.0	-0.48785425101214575	-651.0	-235.0	0.08502024291497975	0.0	-75.0	-1.2765989975375636	73.0	-0.012765989975375635	-139.0	
2019.0	0.06497940272804223	10.069368844232795	1249.0	2085.0	0.25022994199627363	0.0	2752.410888671875	24655.0	0.7275	812.0	-0.48785425101214575	-651.0	-235.0	0.08502024291497975	0.015292858235204161	-59.0	-1.0440451165979612	58.0	-0.2559521896959781	-140.0	
2018.0	0.08890484074191946	10.080960264668136	1248.0	2083.0	0.2627492175562036	0.0	2771.942138671875	25295.0	0.7125	806.0	-0.5040485829959515	-659.0	-241.0	0.09716599190283401	0.09175714941122497	-70.0	-1.1103139501031933	62.0	-0.08782555779165646	-145.0	
2018.0	0.08878293840524426	10.068770031000618	1249.0	2083.0	0.2625041938594865	0.0	2791.473388671875	25935.0	0.7125	806.0	-0.5040485829959515	-659.0	-241.0	0.09716599190283401	0.0	-65.0	-1.1058768836504833	62.0	-0.16450360541775388	-139.0	
2019.0	0.0887841427415825	10.068890464634443	1249.0	2083.0	0.250458421804442	0.0	2811.004638671875	26575.0	0.7125	806.0	-0.5040485829959515	-659.0	-241.0	0.09716599190283401	0.030585716470408322	-69.0	-1.230759594462839	70.0	-0.10437449789337783	-141.0	
2018.0	0.07675866606179893	10.056818987132274	1250.0	2084.0	0.2621449302586852	0.0	2830.535888671875	27215.0	0.7325	814.0	-0.4959514170040486	-655.0	-244.0	0.10323886639676114	-0.09175714941122497	-77.0	-0.9963831428935762	55.0	0.020725135887314047	-133.0	
2018.0	0.07688056839847413	10.069009220799794	1249.0	2084.0	0.26238995395540227	0.0	2850.067138671875	27855.0	0.7325	814.0	-0.4959514170040486	-655.0	-244.0	0.10323886639676114	-0.015292858235204161	-71.0	-0.9216172776837157	50.0	-0.07059410740933678	-138.0	
2018.0	0.10080721074868959	10.08072107486896	1248.0	2082.0	0.2628634574602878	0.0	2869.598388671875	28495.0	0.7325	814.0	-0.4959514170040486	-655.0	-244.0	0.10323886639676114	-0.015292858235204161	-77.0	-1.1071063844099742	62.0	0.01961790347215007	-138.0	
2018.0	0.08866103606856907	10.056579797333098	1250.0	2083.0	0.26225917016276934	0.0	2889.129638671875	29135.0	0.7325	814.0	-0.4959514170040486	-655.0	-244.0	0.10323886639676114	0.09175714941122497	-75.0	-1.064938965130236	59.0	-0.010649389651302358	-145.0	
2019.0	0.0887841427415825	10.068890464634443	1249.0	2083.0	0.250458421804442	0.0	2908.660888671875	29775.0	0.73	813.0	-0.4939271255060729	-654.0	-236.0	0.08704453441295547	0.015292858235204161	-56.0	-0.9666812740485377	53.0	-0.3012120022448586	-140.0	
2018.0	0.06510010072837916	10.081438644266488	1248.0	2085.0	0.26252073774803525	0.0	2928.192138671875	30415.0	0.73	813.0	-0.4939271255060729	-654.0	-236.0	0.08704453441295547	0.04587857470561248	-70.0	-1.139240412238329	64.0	-0.08811482241300782	-142.0	
2019.0	0.0887841427415825	10.068890464634443	1249.0	2083.0	0.250458421804442	0.0	2947.723388671875	31055.0	0.73	813.0	-0.4939271255060729	-654.0	-236.0	0.08704453441295547	0.21410001529285827	-68.0	-1.130281027242369	63.0	-0.11871419587929803	-153.0	
2019.0	0.08890604507825768	10.08108069830196	1248.0	2083.0	0.25070344550115914	0.0	2967.254638671875	31695.0	0.7275	812.0	-0.4939271255060729	-654.0	-247.0	0.10931174089068826	-0.09175714941122497	-70.0	-1.395207617594498	81.0	-0.09067449446656951	-133.0	
2019.0	0.07688177273481236	10.069129654433619	1249.0	2084.0	0.2503441819003578	0.0	2986.785888671875	32335.0	0.7275	812.0	-0.4939271255060729	-654.0	-247.0	0.10931174089068826	0.09175714941122497	-67.0	-1.2636607697593534	72.0	-0.13539247696259277	-145.0	
2018.0	0.08878293840524426	10.068770031000618	1249.0	2083.0	0.2625041938594865	0.0	3006.317138671875	32975.0	0.7275	812.0	-0.4939271255060729	-654.0	-247.0	0.10931174089068826	-0.030585716470408322	-72.0	-1.136489005405134	64.0	-0.05739834102842606	-137.0	
2019.0	0.0887841427415825	10.068890464634443	1249.0	2083.0	0.250458421804442	0.0	3025.848388671875	33615.0	0.7275	812.0	-0.4939271255060729	-654.0	-247.0	0.10931174089068826	0.030585716470408322	-76.0	-1.154930046849734	65.0	0.0037951831896275642	-141.0	
2018.0	0.0770024707351493	10.081199454467312	1248.0	2084.0	0.2626349776521194	0.0	3045.379638671875	34255.0	0.7275	812.0	-0.49190283400809715	-653.0	-249.0	0.11336032388663968	-0.10705000764642914	-68.0	-0.9943906242867975	55.0	-0.1173552918497423	-132.0	
2017.0	0.07687936406213589	10.068888787165971	1249.0	2084.0	0.27443572601044675	0.0	3064.910888671875	34895.0	0.7275	812.0	-0.49190283400809715	-653.0	-249.0	0.11336032388663968	0.061171432940816645	-67.0	-1.1547724877352308	65.0	-0.13430359414235155	-143.0	
2019.0	0.08890604507825768	10.08108069830196	1248.0	2083.0	0.25070344550115914	0.0	3084.442138671875	35535.0	0.7275	812.0	-0.49190283400809715	-653.0	-249.0	0.11336032388663968	-0.030585716470408322	-69.0	-1.1206480061105328	63.0	-0.10327338200985477	-137.0	
2017.0	0.07700126639881107	10.081079020833489	1248.0	2084.0	0.27468074970716394	0.0	3103.973388671875	36175.0	0.7325	814.0	-0.4959514170040486	-655.0	-252.0	0.1194331983805668	0.015292858235204161	-64.0	-1.0755736856935318	60.0	-0.1795450570963093	-140.0	
2017.0	0.07687936406213589	10.068888787165971	1249.0	2084.0	0.27443572601044675	0.0	3123.504638671875	36815.0	0.7325	814.0	-0.4959514170040486	-655.0	-252.0	0.1194331983805668	-0.04587857470561248	-62.0	-1.0882009248636066	61.0	-0.21036029680425986	-136.0	
2019.0	0.07675987039813717	10.0569394207661	1250.0	2084.0	0.2500991582036407	0.0	3143.035888671875	37455.0	0.7325	814.0	-0.4959514170040486	-655.0	-252.0	0.1194331983805668	0.0	-71.0	-0.9376096416615131	51.0	-0.07075403104911475	-139.0	
2019.0	0.07700367507148755	10.081319888101136	1248.0	2084.0	0.2505892055970749	0.0	3162.567138671875	38095.0	0.7375	816.0	-0.4959514170040486	-655.0	-258.0	0.13157894736842105	0.10705000764642914	-72.0	-1.1112324622545489	62.0	-0.057145775596920204	-146.0	
2018.0	0.08890484074191946	10.080960264668136	1248.0	2083.0	0.2627492175562036	0.0	3182.098388671875	38735.0	0.7375	816.0	-0.4959514170040486	-655.0	-258.0	0.13157894736842105	0.04587857470561248	-70.0	-1.2007632554931515	68.0	-0.08873005084555605	-142.0	
2019.0	0.07688177273481236	10.069129654433619	1249.0	2084.0	0.2503441819003578	0.0	3201.629638671875	39375.0	0.7375	816.0	-0.4959514170040486	-655.0	-258.0	0.13157894736842105	0.09175714941122497	-66.0	-1.0481773888738433	58.0	-0.14858212681186259	-145.0	
2019.0	0.08890604507825768	10.08108069830196	1248.0	2083.0	0.25070344550115914	0.0	3221.160888671875	40015.0	0.7375	816.0	-0.4959514170040486	-655.0	-258.0	0.13157894736842105	0.030585716470408322	-59.0	-1.2446060103402257	71.0	-0.25795779863340074	-141.0	
2018.0	0.10068530841201441	10.068530841201442	1249.0	2082.0	0.26261843376357064	0.0	3240.692138671875	40655.0	0.73	813.0	-0.4979757085020243	-656.0	-252.0	0.1194331983805668	0.0764642911760208	-68.0	-1.0478725946970153	58.0	-0.11789011155384449	-144.0	
2019.0	0.10080841508502783	10.080841508502782	1248.0	2082.0	0.2508176854052433	0.0	3260.223388671875	41295.0	0.73	813.0	-0.4979757085020243	-656.0	-252.0	0.1194331983805668	0.0	-69.0	-1.0449677583701884	58.0	-0.10251657953245132	-139.0	
2017.0	0.08878173406890603	10.068649597366795	1249.0	2083.0	0.27454996591453096	0.0	3279.754638671875	41935.0	0.73	813.0	-0.4979757085020243	-656.0	-252.0	0.1194331983805668	0.04587857470561248	-66.0	-1.1386266942638015	64.0	-0.14948661986576217	-142.0	
2019.0	0.0887841427415825	10.068890464634443	1249.0	2083.0	0.250458421804442	0.0	3299.285888671875	42575.0	0.73	813.0	-0.4939271255060729	-654.0	-252.0	0.1194331983805668	-0.12234286588163329	-63.0	-1.008392534468252	56.0	-0.1942177292421814	-131.0	
2018.0	0.07688056839847413	10.069009220799794	1249.0	2084.0	0.26238995395540227	0.0	3318.817138671875	43215.0	0.73	813.0	-0.4939271255060729	-654.0	-252.0	0.1194331983805668	0.0	-71.0	-1.045274617357452	58.0	-0.07183068080607415	-139.0	
2017.0	0.08878173406890603	10.068649597366795	1249.0	2083.0	0.27454996591453096	0.0	3338.348388671875	43855.0	0.73	813.0	-0.4939271255060729	-654.0	-252.0	0.1194331983805668	0.04587857470561248	-75.0	-1.0784847164516662	60.0	-0.010784847164516661	-142.0	
2018.0	0.08878293840524426	10.068770031000618	1249.0	2083.0	0.2625041938594865	0.0	3357.879638671875	44495.0	0.73	813.0	-0.4939271255060729	-654.0	-252.0	0.1194331983805668	-0.13763572411683744	-68.0	-1.1315937152819642	64.0	-0.11872732275969398	-130.0	
2018.0	0.08878293840524426	10.068770031000618	1249.0	2083.0	0.2625041938594865	0.0	3377.410888671875	45135.0	0.725	811.0	-0.49190283400809715	-653.0	-261.0	0.13765182186234817	0.0	-61.0	-0.9514560575388998	52.0	-0.22433733178913767	-139.0	
2018.0	0.07688056839847413	10.069009220799794	1249.0	2084.0	0.26238995395540227	0.0	3396.942138671875	45775.0	0.725	811.0	-0.49190283400809715	-653.0	-261.0	0.13765182186234817	0.0	-64.0	-1.0595813217157346	59.0	-0.17938513345653131	-139.0	
2018.0	0.07675866606179893	10.056818987132274	1250.0	2084.0	0.2621449302586852	0.0	3416.473388671875	46415.0	0.725	811.0	-0.49190283400809715	-653.0	-261.0	0.13765182186234817	0.09175714941122497	-66.0	-1.1558423645697824	65.0	-0.14965877656882198	-145.0	
2017.0	0.07675746172546069	10.056698553498451	1250.0	2084.0	0.27419070231372966	0.0	3436.004638671875	47055.0	0.725	811.0	-0.4959514170040486	-655.0	-242.0	0.09919028340080972	0.13763572411683744	-65.0	-1.188285316195837	67.0	-0.16532768974320744	-148.0	
2018.0	0.0770024707351493	10.081199454467312	1248.0	2084.0	0.2626349776521194	0.0	3455.535888671875	47695.0	0.725	811.0	-0.4959514170040486	-655.0	-242.0	0.09919028340080972	0.13763572411683744	-61.0	-1.0184837792705481	56.0	-0.22500760900645417	-148.0	
2018.0	0.0648562960550288	10.05705817693145	1250.0	2085.0	0.262030690354601	0.0	3475.067138671875	48335.0	0.725	811.0	-0.4959514170040486	-655.0	-242.0	0.09919028340080972	-0.04587857470561248	-65.0	-1.134803345785619	64.0	-0.16479287003910525	-136.0	
2018.0	0.0770024707351493	10.081199454467312	1248.0	2084.0	0.2626349776521194	0.0	3494.598388671875	48975.0	0.7325	814.0	-0.4777327935222672	-646.0	-259.0	0.13360323886639677	-0.10705000764642914	-72.0	-1.1334307395846752	64.0	-0.05736775837022147	-132.0	
2017.0	0.07687936406213589	10.068888787165971	1249.0	2084.0	0.27443572601044675	0.0	3514.129638671875	49615.0	0.7325	814.0	-0.4777327935222672	-646.0	-259.0	0.13360323886639677	0.0	-64.0	-1.0749620325294402	60.0	-0.17953894056466838	-139.0	
2019.0	0.07688177273481236	10.069129654433619	1249.0	2084.0	0.2503441819003578	0.0	3533.660888671875	50255.0	0.7325	814.0	-0.4777327935222672	-646.0	-259.0	0.13360323886639677	-0.015292858235204161	-60.0	-1.0891173722045264	61.0	-0.24105842859391885	-138.0	
2017.0	0.08890363640558122	10.080839831034313	1248.0	2083.0	0.2747949896112481	0.0	3553.192138671875	50895.0	0.7325	814.0	-0.4777327935222672	-646.0	-259.0	0.13360323886639677	-0.09175714941122497	-58.0	-1.1472750906516263	65.0	-0.27232897309463966	-133.0	
2017.0	0.08865983173223084	10.056459363699275	1250.0	2083.0	0.2743049422178139	0.0	3572.723388671875	51535.0	0.7375	816.0	-0.4858299595141701	-650.0	-263.0	0.1417004048582996	0.061171432940816645	-65.0	-1.0929427854931446	61.0	-0.16437426443618053	-143.0	
2018.0	0.0770024707351493	10.081199454467312	1248.0	2084.0	0.2626349776521194	0.0	3592.254638671875	52175.0	0.7375	816.0	-0.4858299595141701	-650.0	-263.0	0.1417004048582996	0.030585716470408322	-62.0	-1.152782033938888	65.0	-0.21100610789501265	-141.0	
2019.0	0.07700367507148755	10.081319888101136	1248.0	2084.0	0.2505892055970749	0.0	3611.785888671875	52815.0	0.7375	816.0	-0.4858299595141701	-650.0	-263.0	0.1417004048582996	-0.12234286588163329	-65.0	-1.0240801042692211	57.0	-0.16368563762394125	-131.0	
2018.0	0.0770024707351493	10.081199454467312	1248.0	2084.0	0.2626349776521194	0.0	3631.317138671875	53455.0	0.725	811.0	-0.48785425101214575	-651.0	-259.0	0.13360323886639677	0.09175714941122497	-79.0	-1.1732176588007026	66.0	0.049645758044492595	-145.0	
2018.0	0.05307582838493384	10.069487600398146	1249.0	2086.0	0.26216147414723395	0.0	3650.848388671875	54095.0	0.725	811.0	-0.48785425101214575	-651.0	-259.0	0.13360323886639677	0.0	-77.0	-1.0461951943192433	58.0	0.020227015373057378	-139.0	
2018.0	0.08878293840524426	10.068770031000618	1249.0	2083.0	0.2625041938594865	0.0	3670.379638671875	54735.0	0.725	811.0	-0.48785425101214575	-651.0	-259.0	0.13360323886639677	-0.13763572411683744	-65.0	-1.223417691683302	70.0	-0.1656790134980821	-130.0	
2018.0	0.0770024707351493	10.081199454467312	1248.0	2084.0	0.2626349776521194	0.0	3689.910888671875	55375.0	0.725	811.0	-0.48785425101214575	-651.0	-259.0	0.13360323886639677	-0.13763572411683744	-71.0	-1.0243890280669208	57.0	-0.07162182491316883	-130.0	
2018.0	0.08878293840524426	10.068770031000618	1249.0	2083.0	0.2625041938594865	0.0	3709.442138671875	56015.0	0.735	815.0	-0.4959514170040486	-655.0	-254.0	0.12348178137651822	0.030585716470408322	-70.0	-1.1386287590742372	64.0	-0.0881087058813669	-141.0	
2017.0	0.07675746172546069	10.056698553498451	1250.0	2084.0	0.27419070231372966	0.0	3728.973388671875	56655.0	0.735	815.0	-0.4959514170040486	-655.0	-254.0	0.12348178137651822	0.12234286588163329	-70.0	-1.0807758348039656	60.0	-0.08753017663866419	-147.0	
2019.0	0.07700367507148755	10.081319888101136	1248.0	2084.0	0.2505892055970749	0.0	3748.504638671875	57295.0	0.735	815.0	-0.4959514170040486	-655.0	-254.0	0.12348178137651822	0.24468573176326658	-71.0	-1.1165839112377427	62.0	-0.07254377374487705	-155.0	
2019.0	0.0887841427415825	10.068890464634443	1249.0	2083.0	0.250458421804442	0.0	3768.035888671875	57935.0	0.725	811.0	-0.49190283400809715	-653.0	-235.0	0.08502024291497975	-0.04587857470561248	-65.0	-1.0886612133445024	61.0	-0.1643314487146941	-136.0	
2019.0	0.052955130384596885	10.057417800364451	1250.0	2086.0	0.24987067839547233	0.0	3787.567138671875	58575.0	0.725	811.0	-0.49190283400809715	-653.0	-235.0	0.08502024291497975	-0.0764642911760208	-65.0	-1.1643414610848468	66.0	-0.16508825119209755	-134.0	
2020.0	0.07700487940782577	10.08144032173496	1248.0	2084.0	0.23854343354203048	0.0	3807.098388671875	59215.0	0.725	811.0	-0.49190283400809715	-653.0	-235.0	0.08502024291497975	-0.10705000764642914	-70.0	-1.040839615715178	58.0	-0.0871308144477763	-132.0	
2018.0	0.0770024707351493	10.081199454467312	1248.0	2084.0	0.2626349776521194	0.0	3826.629638671875	59855.0	0.7275	812.0	-0.4817813765182186	-648.0	-262.0	0.1396761133603239	-0.13763572411683744	-66.0	-1.1005254346672895	62.0	-0.14910560726979705	-130.0	
2018.0	0.07688056839847413	10.069009220799794	1249.0	2084.0	0.26238995395540227	0.0	3846.160888671875	60495.0	0.7275	812.0	-0.4817813765182186	-648.0	-262.0	0.1396761133603239	0.1529285823520416	-70.0	-0.9589534546225044	52.0	-0.08631195283684959	-149.0	
2019.0	0.06497940272804223	10.069368844232795	1249.0	2085.0	0.25022994199627363	0.0	3865.692138671875	61135.0	0.7275	812.0	-0.4817813765182186	-648.0	-262.0	0.1396761133603239	0.09175714941122497	-76.0	-1.2035187919472181	68.0	0.003309295738652726	-145.0	
2019.0	0.07700367507148755	10.081319888101136	1248.0	2084.0	0.2505892055970749	0.0	3885.223388671875	61775.0	0.7275	812.0	-0.4817813765182186	-648.0	-262.0	0.1396761133603239	-0.030585716470408322	-71.0	-1.1209548650977965	63.0	-0.07258748328347758	-137.0	
2018.0	0.0648562960550288	10.05705817693145	1250.0	2085.0	0.262030690354601	0.0	3904.754638671875	62415.0	0.7175	808.0	-0.4777327935222672	-646.0	-261.0	0.13765182186234817	-0.12234286588163329	-61.0	-1.084989229549516	61.0	-0.22567266350924384	-131.0	
2018.0	0.07675866606179893	10.056818987132274	1250.0	2084.0	0.2621449302586852	0.0	3924.285888671875	63055.0	0.7175	808.0	-0.4777327935222672	-646.0	-261.0	0.13765182186234817	-0.015292858235204161	-64.0	-1.1051118009927596	62.0	-0.17984043824930157	-138.0	
2017.0	0.07687936406213589	10.068888787165971	1249.0	2084.0	0.27443572601044675	0.0	3943.817138671875	63695.0	0.7175	808.0	-0.4777327935222672	-646.0	-261.0	0.13765182186234817	-0.015292858235204161	-67.0	-1.0901913786599498	61.0	-0.13365778305159876	-138.0	
2018.0	0.10068530841201441	10.068530841201442	1249.0	2082.0	0.26261843376357064	0.0	3963.348388671875	64335.0	0.7325	814.0	-0.4898785425101215	-652.0	-257.0	0.12955465587044535	0.0	-67.0	-1.0754223210103357	60.0	-0.1335100924751026	-139.0	
2018.0	0.07688056839847413	10.069009220799794	1249.0	2084.0	0.26238995395540227	0.0	3982.879638671875	64975.0	0.7325	814.0	-0.4898785425101215	-652.0	-257.0	0.12955465587044535	0.0764642911760208	-59.0	-1.0926338616954452	61.0	-0.25643807714695294	-144.0	
2019.0	0.06485750039136703	10.057178610565275	1250.0	2085.0	0.24998491829955652	0.0	4002.410888671875	79.0	0.7325	814.0	-0.4898785425101215	-652.0	-257.0	0.12955465587044535	0.0	-66.0	-1.1214110239578206	63.0	-0.14931446316270236	-139.0	
2018.0	0.07688056839847413	10.069009220799794	1249.0	2084.0	0.26238995395540227	0.0	4021.942138671875	719.0	0.7325	814.0	-0.4898785425101215	-652.0	-257.0	0.12955465587044535	-0.10705000764642914	-67.0	-1.055760038047988	59.0	-0.13331346964547913	-132.0	
2018.0	0.0770024707351493	10.081199454467312	1248.0	2084.0	0.2626349776521194	0.0	4041.473388671875	1359.0	0.7325	814.0	-0.47975708502024295	-647.0	-259.0	0.13360323886639677	0.061171432940816645	-69.0	-1.0781757926539666	60.0	-0.10284865987528911	-143.0	
2017.0	0.07687936406213589	10.068888787165971	1249.0	2084.0	0.27443572601044675	0.0	4061.004638671875	1999.0	0.7325	814.0	-0.47975708502024295	-647.0	-259.0	0.13360323886639677	-0.061171432940816645	-70.0	-1.08881670764857	61.0	-0.08761058536711022	-135.0	
2019.0	0.07688177273481236	10.069129654433619	1249.0	2084.0	0.2503441819003578	0.0	4080.535888671875	2639.0	0.7325	814.0	-0.47975708502024295	-647.0	-259.0	0.13360323886639677	0.04587857470561248	-63.0	-1.0151207192732612	56.0	-0.1942850110902315	-142.0	
2019.0	0.07688177273481236	10.069129654433619	1249.0	2084.0	0.2503441819003578	0.0	4100.067138671875	3279.0	0.7225	810.0	-0.48380566801619435	-649.0	-262.0	0.1396761133603239	0.1529285823520416	-76.0	-1.098300428907646	61.0	0.004361479369048446	-149.0	
2018.0	0.07688056839847413	10.069009220799794	1249.0	2084.0	0.26238995395540227	0.0	4119.598388671875	3919.0	0.7225	810.0	-0.48380566801619435	-649.0	-262.0	0.1396761133603239	-0.061171432940816645	-76.0	-1.1512601278651837	65.0	0.0038318823794730693	-135.0	
2017.0	0.07687936406213589	10.068888787165971	1249.0	2084.0	0.27443572601044675	0.0	4139.129638671875	4559.0	0.7225	810.0	-0.48380566801619435	-649.0	-262.0	0.1396761133603239	0.0	-62.0	-1.197700860051821	68.0	-0.21145529615614198	-139.0	
2018.0	0.0770024707351493	10.081199454467312	1248.0	2084.0	0.2626349776521194	0.0	4158.660888671875	5199.0	0.735	815.0	-0.4898785425101215	-652.0	-260.0	0.13562753036437247	-0.030585716470408322	-85.0	-1.0769607455675263	60.0	0.1426752291255738	-137.0	
2019.0	0.10068651274835265	10.068651274835265	1249.0	2082.0	0.25057266170852616	0.0	4178.192138671875	5839.0	0.735	815.0	-0.4898785425101215	-652.0	-260.0	0.13562753036437247	-0.18351429882244993	-72.0	-0.9304232331860439	51.0	-0.05533768330623516	-127.0	
2017.0	0.08865983173223084	10.056459363699275	1250.0	2083.0	0.2743049422178139	0.0	4197.723388671875	6479.0	0.735	815.0	-0.4898785425101215	-652.0	-260.0	0.13562753036437247	-0.09175714941122497	-77.0	-1.1194288294032209	63.0	0.019494679022217604	-133.0	
2019.0	0.07700367507148755	10.081319888101136	1248.0	2084.0	0.2505892055970749	0.0	4217.254638671875	7119.0	0.735	815.0	-0.4898785425101215	-652.0	-260.0	0.13562753036437247	0.0764642911760208	-64.0	-1.0626395875361934	59.0	-0.1794157161147359	-144.0	
2017.0	0.07687936406213589	10.068888787165971	1249.0	2084.0	0.27443572601044675	0.0	4236.785888671875	7759.0	0.73	813.0	-0.4817813765182186	-648.0	-260.0	0.13562753036437247	0.18351429882244993	-72.0	-1.129671438888713	63.0	-0.05733016536326185	-151.0	
2018.0	0.0770024707351493	10.081199454467312	1248.0	2084.0	0.2626349776521194	0.0	4256.317138671875	8399.0	0.73	813.0	-0.4817813765182186	-648.0	-260.0	0.13562753036437247	0.10705000764642914	-62.0	-1.1558402997593467	65.0	-0.21103669055321725	-146.0	
2017.0	0.07687936406213589	10.068888787165971	1249.0	2084.0	0.27443572601044675	0.0	4275.848388671875	9039.0	0.73	813.0	-0.4817813765182186	-648.0	-260.0	0.13562753036437247	-0.030585716470408322	-67.0	-1.0588183038684467	59.0	-0.1333440523036837	-137.0	
2017.0	0.08878173406890603	10.068649597366795	1249.0	2083.0	0.27454996591453096	0.0	4295.379638671875	9679.0	0.7225	810.0	-0.47975708502024295	-647.0	-253.0	0.12145748987854252	0.10705000764642914	-77.0	-1.2504260070460584	71.0	0.018184707245789224	-146.0	
2017.0	0.07700126639881107	10.081079020833489	1248.0	2084.0	0.27468074970716394	0.0	4314.910888671875	10319.0	0.7225	810.0	-0.47975708502024295	-647.0	-253.0	0.12145748987854252	-0.015292858235204161	-71.0	-1.1677086507030052	66.0	-0.07305502113952968	-138.0	
2018.0	0.08890484074191946	10.080960264668136	1248.0	2083.0	0.2627492175562036	0.0	4334.442138671875	10959.0	0.7225	810.0	-0.47975708502024295	-647.0	-253.0	0.12145748987854252	0.09175714941122497	-76.0	-0.9881888405553398	54.0	0.005462595252571508	-145.0	
2018.0	0.10056340607533922	10.056340607533922	1250.0	2082.0	0.26237341006685355	0.0	4353.973388671875	11599.0	0.7225	810.0	-0.47975708502024295	-647.0	-253.0	0.12145748987854252	-0.030585716470408322	-77.0	-1.0295911771773543	57.0	0.020393055544476266	-137.0	
2017.0	0.08902553874225641	10.093030064701832	1247.0	2083.0	0.27504001330796524	0.0	4373.504638671875	12239.0	0.73	813.0	-0.4817813765182186	-648.0	-247.0	0.10931174089068826	0.030585716470408322	-67.0	-1.168929892220753	66.0	-0.13444516818720678	-141.0	
2018.0	0.06497819839170399	10.06924841059897	1249.0	2085.0	0.2622757140513181	0.0	4393.035888671875	12879.0	0.73	813.0	-0.4817813765182186	-648.0	-247.0	0.10931174089068826	-0.061171432940816645	-66.0	-1.2112486761836871	69.0	-0.15021283968496102	-135.0	
2018.0	0.08878293840524426	10.068770031000618	1249.0	2083.0	0.2625041938594865	0.0	4412.567138671875	13519.0	0.73	813.0	-0.4817813765182186	-648.0	-247.0	0.10931174089068826	-0.18351429882244993	-66.0	-1.1140711859887196	63.0	-0.14924106478301136	-127.0	
2019.0	0.08890604507825768	10.08108069830196	1248.0	2083.0	0.25070344550115914	0.0	4432.098388671875	14159.0	0.7275	812.0	-0.5	-657.0	-221.0	0.05668016194331984	0.04587857470561248	-81.0	-1.1101667150408687	62.0	0.08096523479834075	-142.0	
2019.0	0.07700367507148755	10.081319888101136	1248.0	2084.0	0.2505892055970749	0.0	4451.629638671875	14799.0	0.7275	812.0	-0.5	-657.0	-221.0	0.05668016194331984	0.10705000764642914	-69.0	-1.2338178602832977	70.0	-0.10440508055158242	-146.0	
2018.0	0.08890484074191946	10.080960264668136	1248.0	2083.0	0.2627492175562036	0.0	4471.160888671875	15439.0	0.7275	812.0	-0.5	-657.0	-221.0	0.05668016194331984	0.061171432940816645	-77.0	-1.0332610961619049	57.0	0.02035635635463076	-143.0	
2018.0	0.0770024707351493	10.081199454467312	1248.0	2084.0	0.2626349776521194	0.0	4490.692138671875	16079.0	0.7225	810.0	-0.4777327935222672	-646.0	-249.0	0.11336032388663968	-0.061171432940816645	-71.0	-1.1812544020244355	67.0	-0.07319047865274397	-135.0	
2019.0	0.10068651274835265	10.068651274835265	1249.0	2082.0	0.25057266170852616	0.0	4510.223388671875	16719.0	0.7225	810.0	-0.4777327935222672	-646.0	-249.0	0.11336032388663968	0.0	-66.0	-1.1214110239578206	63.0	-0.14931446316270236	-139.0	
2018.0	0.08890484074191946	10.080960264668136	1248.0	2083.0	0.2627492175562036	0.0	4529.754638671875	17359.0	0.7225	810.0	-0.4777327935222672	-646.0	-249.0	0.11336032388663968	0.0	-74.0	-1.1226384599068757	63.0	-0.026570868257193663	-139.0	
2018.0	0.07688056839847413	10.069009220799794	1249.0	2084.0	0.26238995395540227	0.0	4549.285888671875	17999.0	0.7225	810.0	-0.4777327935222672	-646.0	-249.0	0.11336032388663968	0.0764642911760208	-73.0	-1.2024468503022308	68.0	-0.042713435819272116	-144.0	
2018.0	0.0770024707351493	10.081199454467312	1248.0	2084.0	0.2626349776521194	0.0	4568.817138671875	18639.0	0.725	811.0	-0.4817813765182186	-648.0	-243.0	0.10121457489878542	-0.0764642911760208	-70.0	-0.9805400787885392	54.0	-0.08652781907850993	-134.0	
2019.0	0.07712557740816274	10.093510121768656	1247.0	2084.0	0.25083422929379207	0.0	4588.348388671875	19279.0	0.725	811.0	-0.4817813765182186	-648.0	-243.0	0.10121457489878542	-0.04587857470561248	-67.0	-1.0582066507043548	59.0	-0.13333793577204278	-136.0	
2019.0	0.0887841427415825	10.068890464634443	1249.0	2083.0	0.250458421804442	0.0	4607.879638671875	19919.0	0.725	811.0	-0.4817813765182186	-648.0	-243.0	0.10121457489878542	0.0	-62.0	-1.1669394384244098	66.0	-0.21114768193986788	-139.0	
2017.0	0.07687936406213589	10.068888787165971	1249.0	2084.0	0.27443572601044675	0.0	4627.410888671875	20559.0	0.73	813.0	-0.4898785425101215	-652.0	-237.0	0.08906882591093118	0.0	-60.0	-1.2127747118782628	69.0	-0.2422950019906562	-139.0	
2019.0	0.06497940272804223	10.069368844232795	1249.0	2085.0	0.25022994199627363	0.0	4646.942138671875	21199.0	0.73	813.0	-0.4898785425101215	-652.0	-237.0	0.08906882591093118	0.16822144058724578	-68.0	-1.1438267785637992	64.0	-0.11884965339251233	-150.0	
2018.0	0.0770024707351493	10.081199454467312	1248.0	2084.0	0.2626349776521194	0.0	4666.473388671875	21839.0	0.73	813.0	-0.4898785425101215	-652.0	-237.0	0.08906882591093118	-0.13763572411683744	-73.0	-1.2092644168186515	69.0	-0.04278161148443632	-130.0	
2019.0	0.0887841427415825	10.068890464634443	1249.0	2083.0	0.250458421804442	0.0	4686.004638671875	22479.0	0.73	813.0	-0.4898785425101215	-652.0	-237.0	0.08906882591093118	0.1988071570576541	-78.0	-1.1927265122694186	67.0	0.03410618585168053	-152.0	
2018.0	0.08878293840524426	10.068770031000618	1249.0	2083.0	0.2625041938594865	0.0	4705.535888671875	23119.0	0.725	811.0	-0.47975708502024295	-647.0	-245.0	0.10526315789473684	-0.21410001529285827	-54.0	-1.095626014923248	62.0	-0.3331904169698555	-125.0	
2017.0	0.10092790874902655	10.092790874902656	1247.0	2082.0	0.2751542532120494	0.0	4725.067138671875	23759.0	0.725	811.0	-0.47975708502024295	-647.0	-245.0	0.10526315789473684	-0.030585716470408322	-72.0	-1.1518697162188396	65.0	-0.05755214813656311	-137.0	
2018.0	0.08878293840524426	10.068770031000618	1249.0	2083.0	0.2625041938594865	0.0	4744.598388671875	24399.0	0.725	811.0	-0.47975708502024295	-647.0	-245.0	0.10526315789473684	0.030585716470408322	-68.0	-1.04603763520474	58.0	-0.11787176195892174	-141.0	
2017.0	0.08878173406890603	10.068649597366795	1249.0	2083.0	0.27454996591453096	0.0	4764.129638671875	25039.0	0.73	813.0	-0.48785425101214575	-651.0	-237.0	0.08906882591093118	0.061171432940816645	-69.0	-1.1704600575362	66.0	-0.10377150252411145	-143.0	
2018.0	0.06497819839170399	10.06924841059897	1249.0	2085.0	0.2622757140513181	0.0	4783.660888671875	25679.0	0.73	813.0	-0.48785425101214575	-651.0	-237.0	0.08906882591093118	0.030585716470408322	-68.0	-1.0767990568321513	60.0	-0.11817937617519586	-141.0	
2017.0	0.06497699405536575	10.069127976965147	1249.0	2085.0	0.2743214861063626	0.0	4803.192138671875	26319.0	0.73	813.0	-0.48785425101214575	-651.0	-237.0	0.08906882591093118	-0.030585716470408322	-65.0	-1.2276992638319444	70.0	-0.16572182921956852	-137.0	
2018.0	0.07688056839847413	10.069009220799794	1249.0	2084.0	0.26238995395540227	0.0	4822.723388671875	26959.0	0.7275	812.0	-0.4939271255060729	-654.0	-245.0	0.10526315789473684	0.09175714941122497	-63.0	-0.9554328355107142	52.0	-0.193688132252606	-145.0	
2019.0	0.07688177273481236	10.069129654433619	1249.0	2084.0	0.2503441819003578	0.0	4842.254638671875	27599.0	0.7275	812.0	-0.4939271255060729	-654.0	-245.0	0.10526315789473684	0.1529285823520416	-71.0	-1.0821525706257809	60.0	-0.07219946033875743	-149.0	
2019.0	0.07688177273481236	10.069129654433619	1249.0	2084.0	0.2503441819003578	0.0	4861.785888671875	28239.0	0.7275	812.0	-0.4939271255060729	-654.0	-245.0	0.10526315789473684	0.04587857470561248	-76.0	-1.263206675709765	72.0	0.002712416901027255	-142.0	
2018.0	0.08878293840524426	10.068770031000618	1249.0	2083.0	0.2625041938594865	0.0	4881.317138671875	28879.0	0.7275	812.0	-0.4939271255060729	-654.0	-245.0	0.10526315789473684	0.0764642911760208	-65.0	-1.1550772819120587	65.0	-0.16499560940036964	-144.0	
2017.0	0.10080600641235135	10.080600641235137	1248.0	2082.0	0.27490922951533225	0.0	4900.848388671875	29519.0	0.72	809.0	-0.4858299595141701	-650.0	-243.0	0.10121457489878542	0.030585716470408322	-70.0	-1.077105915819415	60.0	-0.08749347744881869	-141.0	
2019.0	0.05307703272127208	10.06960803403197	1249.0	2086.0	0.2501157020921895	0.0	4920.379638671875	30159.0	0.72	809.0	-0.4858299595141701	-650.0	-243.0	0.10121457489878542	0.12234286588163329	-56.0	-1.0940085327068247	61.0	-0.3024852748314415	-147.0	
2019.0	0.0651013050647174	10.081559077900312	1248.0	2085.0	0.25047496569299077	0.0	4939.910888671875	30799.0	0.72	809.0	-0.4858299595141701	-650.0	-243.0	0.10121457489878542	-0.030585716470408322	-70.0	-1.1823242788589872	67.0	-0.0885456610792144	-137.0	
2019.0	0.07688177273481236	10.069129654433619	1249.0	2084.0	0.2503441819003578	0.0	4959.442138671875	31439.0	0.7225	810.0	-0.4939271255060729	-654.0	-238.0	0.09109311740890688	0.10705000764642914	-90.0	-1.1139941931399227	62.0	0.21902731294047434	-146.0	
2018.0	0.0770024707351493	10.081199454467312	1248.0	2084.0	0.2626349776521194	0.0	4978.973388671875	32079.0	0.7225	810.0	-0.4939271255060729	-654.0	-238.0	0.09109311740890688	0.0	-61.0	-1.08988245486225	61.0	-0.2257215957623712	-139.0	
2018.0	0.08878293840524426	10.068770031000618	1249.0	2083.0	0.2625041938594865	0.0	4998.504638671875	32719.0	0.7225	810.0	-0.4939271255060729	-654.0	-238.0	0.09109311740890688	-0.061171432940816645	-68.0	-1.057748427033895	59.0	-0.11798886987721328	-135.0	
2018.0	0.0770024707351493	10.081199454467312	1248.0	2084.0	0.2626349776521194	0.0	5018.035888671875	33359.0	0.735	815.0	-0.4979757085020243	-656.0	-242.0	0.09919028340080972	0.0	-61.0	-1.1514052981170724	65.0	-0.2263368241949194	-139.0	
2017.0	0.08865983173223084	10.056459363699275	1250.0	2083.0	0.2743049422178139	0.0	5037.567138671875	33999.0	0.735	815.0	-0.4979757085020243	-656.0	-242.0	0.09919028340080972	0.04587857470561248	-71.0	-1.2316781066141944	70.0	-0.07369471569864157	-142.0	
2017.0	0.07712316873548626	10.093269254501008	1247.0	2084.0	0.274925773403881	0.0	5057.098388671875	34639.0	0.735	815.0	-0.4979757085020243	-656.0	-242.0	0.09919028340080972	0.030585716470408322	-64.0	-1.0915660496713293	61.0	-0.17970498073608726	-141.0	
2018.0	0.08866103606856907	10.056579797333098	1250.0	2083.0	0.26225917016276934	0.0	5076.629638671875	35279.0	0.735	815.0	-0.4979757085020243	-656.0	-242.0	0.09919028340080972	-0.0764642911760208	-75.0	-1.196637177648577	68.0	-0.011966371776485768	-134.0	
2018.0	0.08890484074191946	10.080960264668136	1248.0	2083.0	0.2627492175562036	0.0	5096.160888671875	35919.0	0.7225	810.0	-0.4898785425101215	-652.0	-258.0	0.13157894736842105	0.10705000764642914	-66.0	-1.1718347285475799	66.0	-0.14981870020859997	-146.0	
2017.0	0.07700126639881107	10.081079020833489	1248.0	2084.0	0.27468074970716394	0.0	5115.692138671875	36559.0	0.7225	810.0	-0.4898785425101215	-652.0	-258.0	0.13157894736842105	0.030585716470408322	-71.0	-1.184924321008986	67.0	-0.07322717784258949	-141.0	
2019.0	0.08890604507825768	10.08108069830196	1248.0	2083.0	0.25070344550115914	0.0	5135.223388671875	37199.0	0.7225	810.0	-0.4898785425101215	-652.0	-258.0	0.13157894736842105	0.015292858235204161	-67.0	-1.1836989498703667	67.0	-0.13459285876370292	-140.0	
2018.0	0.10080721074868959	10.08072107486896	1248.0	2082.0	0.2628634574602878	0.0	5154.754638671875	37839.0	0.7275	812.0	-0.49190283400809715	-653.0	-255.0	0.12550607287449392	0.04587857470561248	-75.0	-1.0631040056379606	59.0	-0.010631040056379605	-142.0	
2018.0	0.07675866606179893	10.056818987132274	1250.0	2084.0	0.2621449302586852	0.0	5174.285888671875	38479.0	0.7275	812.0	-0.49190283400809715	-653.0	-255.0	0.12550607287449392	0.061171432940816645	-75.0	-1.032954237174641	57.0	-0.010329542371746412	-143.0	
2017.0	0.07700126639881107	10.081079020833489	1248.0	2084.0	0.27468074970716394	0.0	5193.817138671875	39119.0	0.7275	812.0	-0.49190283400809715	-653.0	-255.0	0.12550607287449392	-0.015292858235204161	-62.0	-0.9971399663095567	55.0	-0.20944968721871934	-138.0	
2018.0	0.07688056839847413	10.069009220799794	1249.0	2084.0	0.26238995395540227	0.0	5213.348388671875	39759.0	0.7275	812.0	-0.49190283400809715	-653.0	-255.0	0.12550607287449392	0.0764642911760208	-66.0	-1.2167535546605128	69.0	-0.15026788846972927	-144.0	
2019.0	0.0651013050647174	10.081559077900312	1248.0	2085.0	0.25047496569299077	0.0	5232.879638671875	40399.0	0.7325	814.0	-0.5040485829959515	-659.0	-244.0	0.10323886639676114	-0.0764642911760208	-72.0	-1.088511913471742	61.0	-0.05691857010909214	-134.0	
2019.0	0.08890604507825768	10.08108069830196	1248.0	2083.0	0.25070344550115914	0.0	5252.410888671875	41039.0	0.7325	814.0	-0.5040485829959515	-659.0	-244.0	0.10323886639676114	0.015292858235204161	-80.0	-1.0626478467779366	59.0	0.06609593982284517	-140.0	
2018.0	0.0770024707351493	10.081199454467312	1248.0	2084.0	0.2626349776521194	0.0	5271.942138671875	41679.0	0.7325	814.0	-0.5040485829959515	-659.0	-244.0	0.10323886639676114	0.030585716470408322	-71.0	-0.9849750804308134	54.0	-0.07122768543680776	-141.0	
2018.0	0.08890484074191946	10.080960264668136	1248.0	2083.0	0.2627492175562036	0.0	5291.473388671875	42319.0	0.72	809.0	-0.4959514170040486	-655.0	-246.0	0.10728744939271255	0.0764642911760208	-74.0	-1.1256967257273345	63.0	-0.02660145091539825	-144.0	
2017.0	0.07687936406213589	10.068888787165971	1249.0	2084.0	0.27443572601044675	0.0	5311.004638671875	42959.0	0.72	809.0	-0.4959514170040486	-655.0	-246.0	0.10728744939271255	0.015292858235204161	-71.0	-1.1381705354037774	64.0	-0.0727596399865374	-140.0	
2019.0	0.08890604507825768	10.08108069830196	1248.0	2083.0	0.25070344550115914	0.0	5330.535888671875	43599.0	0.72	809.0	-0.4959514170040486	-655.0	-246.0	0.10728744939271255	-0.061171432940816645	-71.0	-1.2581579560929634	72.0	-0.07395951419342925	-135.0	
2017.0	0.07687936406213589	10.068888787165971	1249.0	2084.0	0.27443572601044675	0.0	5350.067138671875	44239.0	0.7225	810.0	-0.48785425101214575	-651.0	-253.0	0.12145748987854252	-0.015292858235204161	-70.0	-1.0291288238860228	57.0	-0.08701370652948477	-138.0	
2018.0	0.07688056839847413	10.069009220799794	1249.0	2084.0	0.26238995395540227	0.0	5369.598388671875	44879.0	0.7225	810.0	-0.48785425101214575	-651.0	-253.0	0.12145748987854252	-0.015292858235204161	-66.0	-1.0285151059114954	57.0	-0.1483855039822391	-138.0	
2016.0	0.0887805297325678	10.06852916373297	1249.0	2083.0	0.28659573796957544	0.0	5389.129638671875	45519.0	0.7225	810.0	-0.48785425101214575	-651.0	-253.0	0.12145748987854252	-0.13763572411683744	-69.0	-1.208650698844124	69.0	-0.10415340893719069	-130.0	
2017.0	0.08890363640558122	10.080839831034313	1248.0	2083.0	0.2747949896112481	0.0	5408.660888671875	46159.0	0.7225	810.0	-0.48785425101214575	-651.0	-253.0	0.12145748987854252	-0.04587857470561248	-67.0	-1.165871626400294	66.0	-0.13441458552900218	-136.0	
2018.0	0.07688056839847413	10.069009220799794	1249.0	2084.0	0.26238995395540227	0.0	5428.192138671875	46799.0	0.73	813.0	-0.48785425101214575	-651.0	-257.0	0.12955465587044535	0.13763572411683744	-75.0	-1.0975353462499224	61.0	-0.010975353462499223	-148.0	
2019.0	0.07700367507148755	10.081319888101136	1248.0	2084.0	0.2505892055970749	0.0	5447.723388671875	47439.0	0.73	813.0	-0.48785425101214575	-651.0	-257.0	0.12955465587044535	-0.1529285823520416	-61.0	-1.0991466340350382	62.0	-0.22581423755409907	-129.0	
2018.0	0.08890484074191946	10.080960264668136	1248.0	2083.0	0.2627492175562036	0.0	5467.254638671875	48079.0	0.73	813.0	-0.48785425101214575	-651.0	-257.0	0.12955465587044535	0.09175714941122497	-73.0	-0.9262057088196218	50.0	-0.03995102440444603	-145.0	
2019.0	0.07700367507148755	10.081319888101136	1248.0	2084.0	0.2505892055970749	0.0	5486.785888671875	48719.0	0.7225	810.0	-0.5060728744939271	-660.0	-236.0	0.08704453441295547	0.061171432940816645	-72.0	-1.0786360811348623	60.0	-0.05681981178572334	-143.0	
2017.0	0.08890363640558122	10.080839831034313	1248.0	2083.0	0.2747949896112481	0.0	5506.317138671875	49359.0	0.7225	810.0	-0.5060728744939271	-660.0	-236.0	0.08704453441295547	-0.09175714941122497	-73.0	-1.0880536898012823	61.0	-0.041569504214262636	-133.0	
2019.0	0.07700367507148755	10.081319888101136	1248.0	2084.0	0.2505892055970749	0.0	5525.848388671875	49999.0	0.7225	810.0	-0.5060728744939271	-660.0	-236.0	0.08704453441295547	0.0	-70.0	-1.1374054527460538	64.0	-0.08809647281808507	-139.0	
2018.0	0.07688056839847413	10.069009220799794	1249.0	2084.0	0.26238995395540227	0.0	5545.379638671875	50639.0	0.7225	810.0	-0.5060728744939271	-660.0	-236.0	0.08704453441295547	-0.015292858235204161	-72.0	-1.0755778153144036	60.0	-0.05678922912751875	-138.0	
2017.0	0.07687936406213589	10.068888787165971	1249.0	2084.0	0.27443572601044675	0.0	5564.910888671875	51279.0	0.7275	812.0	-0.48785425101214575	-651.0	-262.0	0.1396761133603239	0.061171432940816645	-65.0	-1.077562074679439	60.0	-0.16422045732804347	-143.0	
2018.0	0.08878293840524426	10.068770031000618	1249.0	2083.0	0.2625041938594865	0.0	5584.442138671875	51919.0	0.7275	812.0	-0.48785425101214575	-651.0	-262.0	0.1396761133603239	0.030585716470408322	-68.0	-1.092179767645857	61.0	-0.11833318328333291	-141.0	
2017.0	0.07700126639881107	10.081079020833489	1248.0	2084.0	0.27468074970716394	0.0	5603.973388671875	52559.0	0.7275	812.0	-0.48785425101214575	-651.0	-262.0	0.1396761133603239	-0.015292858235204161	-66.0	-1.197702924862257	68.0	-0.1500773821717467	-138.0	
2019.0	0.07688177273481236	10.069129654433619	1249.0	2084.0	0.2503441819003578	0.0	5623.504638671875	53199.0	0.7325	814.0	-0.48785425101214575	-651.0	-242.0	0.09919028340080972	0.10705000764642914	-73.0	-1.0652437593070638	59.0	-0.04134140490932045	-146.0	
2017.0	0.07687936406213589	10.068888787165971	1249.0	2084.0	0.27443572601044675	0.0	5643.035888671875	53839.0	0.7325	814.0	-0.48785425101214575	-651.0	-242.0	0.09919028340080972	-0.10705000764642914	-65.0	-1.1477374439429577	65.0	-0.16492221102067864	-132.0	
2018.0	0.08890484074191946	10.080960264668136	1248.0	2083.0	0.2627492175562036	0.0	5662.567138671875	54479.0	0.7325	814.0	-0.48785425101214575	-651.0	-242.0	0.09919028340080972	0.16822144058724578	-65.0	-1.2356507549651372	70.0	-0.16580134413090045	-150.0	
2017.0	0.10068410407567617	10.068410407567619	1249.0	2082.0	0.2746642058186151	0.0	5682.098388671875	55119.0	0.7275	812.0	-0.5	-657.0	-246.0	0.10728744939271255	0.030585716470408322	-79.0	-1.1707710461443355	66.0	0.049670224171056265	-141.0	
2018.0	0.10056340607533922	10.056340607533922	1250.0	2082.0	0.26237341006685355	0.0	5701.629638671875	55759.0	0.7275	812.0	-0.5	-657.0	-246.0	0.10728744939271255	0.12234286588163329	-74.0	-1.0660088419647875	59.0	-0.026004572077772778	-147.0	
2018.0	0.06497819839170399	10.06924841059897	1249.0	2085.0	0.2622757140513181	0.0	5721.160888671875	56399.0	0.7275	812.0	-0.5	-657.0	-246.0	0.10728744939271255	-0.13763572411683744	-66.0	-1.0851447238535838	61.0	-0.14895180016166001	-130.0	
2018.0	0.07688056839847413	10.069009220799794	1249.0	2084.0	0.26238995395540227	0.0	5740.692138671875	57039.0	0.7275	812.0	-0.5	-657.0	-246.0	0.10728744939271255	-0.015292858235204161	-72.0	-1.1832427910103427	67.0	-0.05786587888447814	-138.0	
2017.0	0.07700126639881107	10.081079020833489	1248.0	2084.0	0.27468074970716394	0.0	5760.223388671875	57679.0	0.7225	810.0	-0.4736842105263158	-644.0	-265.0	0.145748987854251	0.030585716470408322	-58.0	-1.1367876051506547	64.0	-0.27222409823963	-141.0	
2017.0	0.07700126639881107	10.081079020833489	1248.0	2084.0	0.27468074970716394	0.0	5779.754638671875	58319.0	0.7225	810.0	-0.4736842105263158	-644.0	-265.0	0.145748987854251	-0.09175714941122497	-64.0	-1.1635763784271231	66.0	-0.1804250840236452	-133.0	
2018.0	0.06497819839170399	10.06924841059897	1249.0	2085.0	0.2622757140513181	0.0	5799.285888671875	58959.0	0.7225	810.0	-0.4736842105263158	-644.0	-265.0	0.145748987854251	-0.04587857470561248	-63.0	-1.149877197612061	65.0	-0.19563257587361949	-136.0	
2017.0	0.08878173406890603	10.068649597366795	1249.0	2083.0	0.27454996591453096	0.0	5818.817138671875	59599.0	0.725	811.0	-0.47975708502024295	-647.0	-258.0	0.13157894736842105	0.0	-69.0	-1.0449677583701884	58.0	-0.10251657953245132	-139.0	
2017.0	0.07687936406213589	10.068888787165971	1249.0	2084.0	0.27443572601044675	0.0	5838.348388671875	60239.0	0.725	811.0	-0.47975708502024295	-647.0	-258.0	0.13157894736842105	0.0	-66.0	-1.029126759075587	57.0	-0.14839162051388002	-139.0	
2019.0	0.0886622404049073	10.056700230966923	1250.0	2083.0	0.25021339810772486	0.0	5857.879638671875	60879.0	0.725	811.0	-0.47975708502024295	-647.0	-258.0	0.13157894736842105	0.10705000764642914	-71.0	-1.1264597435746224	63.0	-0.07264253206824585	-146.0	
2021.0	0.10068892142102912	10.068892142102913	1249.0	2082.0	0.2264811175984372	0.0	5877.410888671875	61519.0	0.725	811.0	-0.47975708502024295	-647.0	-258.0	0.13157894736842105	-0.21410001529285827	-50.0	-1.1103930077624258	63.0	-0.3947160215307469	-125.0	
2021.0	0.06473800672736832	10.045229244165403	1251.0	2085.0	0.22564835049275042	0.0	5896.942138671875	62159.0	0.7225	810.0	-0.4736842105263158	-644.0	-261.0	0.13765182186234817	-0.015292858235204161	-66.0	-1.01313439509779	56.0	-0.14823169687410204	-138.0	
2028.0	0.0376503339779656	9.717414350177513	1278.0	2087.0	0.13448382648790821	0.0	5916.473388671875	62799.0	0.7225	810.0	-0.4736842105263158	-644.0	-261.0	0.13765182186234817	-0.10705000764642914	-67.0	-1.0403793272342823	58.0	-0.13315966253734207	-132.0	
2015.0	-0.023461902805059637	9.558571624255942	1291.0	2092.0	0.28732235562574293	0.0	5936.004638671875	63439.0	0.7225	810.0	-0.4736842105263158	-644.0	-261.0	0.13765182186234817	0.5505428964673498	-80.0	-1.00715215345262	54.0	0.06665089675609832	-175.0	
2014.0	0.052217694682854573	9.98367423019022	1256.0	2086.0	0.30862939649039195	0.0	5955.535888671875	64079.0	0.7225	810.0	-0.4757085020242915	-645.0	-267.0	0.14979757085020243	-0.015292858235204161	-82.0	-1.0463506886233112	58.0	0.09694787872064123	-138.0	
2011.0	0.09933595235421967	9.933595235421969	1260.0	2082.0	0.34424357748499357	0.0	5975.067138671875	64719.0	0.7225	810.0	-0.4757085020242915	-645.0	-267.0	0.14979757085020243	-0.015292858235204161	-72.0	-1.167862080196637	66.0	-0.057712071776341085	-138.0	
2021.0	0.12266512638444158	9.885560257491777	1264.0	2080.0	0.22303424195584864	0.0	5994.598388671875	65359.0	0.7225	810.0	-0.4757085020242915	-645.0	-267.0	0.14979757085020243	-0.12234286588163329	-59.0	-1.1615859246307803	66.0	-0.2571275977763063	-131.0	
2022.0	0.08939726743397315	10.130202933873507	1244.0	2083.0	0.21554622412289418	0.0	6014.129638671875	463.0	0.7325	814.0	-0.48785425101214575	-651.0	-263.0	0.1417004048582996	-0.33644288117449156	-67.0	-1.1234887946551395	64.0	-0.13399075721155065	-117.0	
2029.0	0.06633237179485166	10.204665750913739	1238.0	2085.0	0.13246748210971726	0.0	6033.660888671875	1103.0	0.7325	814.0	-0.48785425101214575	-651.0	-263.0	0.1417004048582996	0.0	-71.0	-1.2606045687493304	72.0	-0.07398398031999293	-139.0	
2023.0	0.07676468774349011	10.057421155301393	1250.0	2084.0	0.2019160699834628	0.0	6053.192138671875	1743.0	0.7325	814.0	-0.48785425101214575	-651.0	-263.0	0.1417004048582996	0.13763572411683744	-72.0	-1.0970750577690267	61.0	-0.05700420155206499	-148.0	
2018.0	0.10092911308536479	10.092911308536479	1247.0	2082.0	0.2631084811570049	0.0	6072.723388671875	2383.0	0.7325	814.0	-0.48785425101214575	-651.0	-263.0	0.1417004048582996	0.0	-79.0	-1.0003599208653906	55.0	0.051374335423845716	-139.0	
2006.0	0.0888903887058606	10.079515061062251	1248.0	2083.0	0.40729848221673737	0.0	6092.254638671875	3023.0	0.7275	812.0	-0.4858299595141701	-650.0	-253.0	0.12145748987854252	0.21410001529285827	-81.0	-0.9938492133362333	54.0	0.0821284098153871	-153.0	
2008.0	0.10067326504863204	10.067326504863205	1249.0	2082.0	0.3830761543140154	0.0	6111.785888671875	3663.0	0.7275	812.0	-0.4858299595141701	-650.0	-253.0	0.12145748987854252	-0.030585716470408322	-66.0	-1.120187717629637	63.0	-0.14930223009942054	-137.0	
2012.0	0.08877571238721485	10.068047429197676	1249.0	2083.0	0.33477882618975335	0.0	6131.317138671875	4303.0	0.7275	812.0	-0.4858299595141701	-650.0	-253.0	0.12145748987854252	-0.04587857470561248	-78.0	-1.275224326526184	73.0	0.03328120770911288	-136.0	
2020.0	0.11234628241811065	10.044152051334875	1251.0	2081.0	0.2381510821641316	0.0	6150.848388671875	4943.0	0.725	811.0	-0.4757085020242915	-645.0	-252.0	0.1194331983805668	-0.061171432940816645	-60.0	-1.3948966289863627	81.0	-0.2441162211617372	-135.0	
2024.0	0.10093633910339421	10.09363391033942	1247.0	2082.0	0.190833848826738	0.0	6170.379638671875	5583.0	0.725	811.0	-0.4757085020242915	-645.0	-252.0	0.1194331983805668	0.061171432940816645	-68.0	-1.2164487604836849	69.0	-0.1195758732117112	-143.0	
2023.0	0.08878896008693546	10.069372199169736	1249.0	2083.0	0.20227533358426406	0.0	6189.910888671875	6223.0	0.725	811.0	-0.4757085020242915	-645.0	-252.0	0.1194331983805668	0.04587857470561248	-68.0	-1.215837107319593	69.0	-0.11956975668007028	-142.0	
2016.0	0.07700006206247284	10.080958587199664	1248.0	2084.0	0.28672652176220836	0.0	6209.442138671875	6863.0	0.725	811.0	-0.4757085020242915	-645.0	-252.0	0.1194331983805668	0.09175714941122497	-77.0	-1.234433643068261	70.0	0.0183446308855672	-145.0	
2015.0	0.07687695538945942	10.068647919898323	1249.0	2084.0	0.2985272701205357	0.0	6228.973388671875	7503.0	0.7225	810.0	-0.4757085020242915	-645.0	-245.0	0.10526315789473684	-0.015292858235204161	-78.0	-1.1995440787858396	68.0	0.034038010186516324	-138.0	
2011.0	0.11270115040109208	10.079638849633017	1248.0	2081.0	0.34729810174968334	0.0	6248.504638671875	8143.0	0.7225	810.0	-0.4757085020242915	-645.0	-245.0	0.10526315789473684	0.04587857470561248	-70.0	-1.1700018338657403	66.0	-0.08842243662928194	-142.0	
2017.0	0.10080600641235135	10.080600641235137	1248.0	2082.0	0.27490922951533225	0.0	6268.035888671875	8783.0	0.7225	810.0	-0.4757085020242915	-645.0	-245.0	0.10526315789473684	0.04587857470561248	-66.0	-1.2924338024008575	74.0	-0.15102469094713272	-142.0	
2024.0	0.05332685907631364	10.094590669536126	1247.0	2086.0	0.1903768892104013	0.0	6287.567138671875	9423.0	0.7225	810.0	-0.47975708502024295	-647.0	-246.0	0.10728744939271255	-0.13763572411683744	-64.0	-1.3309292378856092	77.0	-0.18209861261823007	-130.0	
2025.0	0.06510853108274682	10.082281679703254	1248.0	2085.0	0.1782003333627239	0.0	6307.098388671875	10063.0	0.7225	810.0	-0.47975708502024295	-647.0	-246.0	0.10728744939271255	-0.061171432940816645	-66.0	-1.1497258329288649	65.0	-0.1495976112524128	-135.0	
2021.0	0.07700608374416401	10.081560755368782	1248.0	2084.0	0.226497661486986	0.0	6326.629638671875	10703.0	0.7225	810.0	-0.47975708502024295	-647.0	-246.0	0.10728744939271255	-0.10705000764642914	-70.0	-0.9177939292055333	50.0	-0.08590035758267986	-132.0	
2015.0	0.08890122773290474	10.080598963766665	1248.0	2083.0	0.29888653372133706	0.0	6346.160888671875	11343.0	0.7275	812.0	-0.4777327935222672	-646.0	-252.0	0.1194331983805668	-0.061171432940816645	-72.0	-1.1506464098906561	65.0	-0.05753991507328128	-135.0	
2012.0	0.08865381005053966	10.055857195530157	1250.0	2083.0	0.3345338024930362	0.0	6365.692138671875	11983.0	0.7275	812.0	-0.4777327935222672	-646.0	-252.0	0.1194331983805668	0.015292858235204161	-62.0	-1.0598861158925625	59.0	-0.2100771487145494	-140.0	
2015.0	0.07663315071610904	10.044267452563284	1251.0	2084.0	0.2980372227271015	0.0	6385.223388671875	12623.0	0.7275	812.0	-0.4777327935222672	-646.0	-252.0	0.1194331983805668	-0.061171432940816645	-61.0	-1.2104815287155277	69.0	-0.22692758650090394	-135.0	
2017.0	0.10080600641235135	10.080600641235137	1248.0	2082.0	0.27490922951533225	0.0	6404.754638671875	13263.0	0.7275	812.0	-0.4777327935222672	-646.0	-252.0	0.1194331983805668	-0.16822144058724578	-65.0	-1.1452908312865906	65.0	-0.16489774489411496	-128.0	
2024.0	0.0651073267464086	10.08216124606943	1248.0	2085.0	0.19024610541776837	0.0	6424.285888671875	13903.0	0.72	809.0	-0.47975708502024295	-647.0	-249.0	0.11336032388663968	0.015292858235204161	-63.0	-1.2138466535232502	69.0	-0.19627227043273138	-140.0	
2025.0	0.0530842587393015	10.070330635834912	1249.0	2086.0	0.17784106976192257	0.0	6443.817138671875	14543.0	0.72	809.0	-0.47975708502024295	-647.0	-249.0	0.11336032388663968	0.015292858235204161	-66.0	-1.1835455203767349	67.0	-0.14993580812689153	-140.0	
2016.0	0.06497578971902751	10.069007543331324	1249.0	2085.0	0.28636725816140707	0.0	6463.348388671875	15183.0	0.72	809.0	-0.47975708502024295	-647.0	-249.0	0.11336032388663968	0.030585716470408322	-68.0	-1.015276213577329	56.0	-0.11756414774264763	-141.0	
2012.0	0.10067808239398499	10.0678082393985	1249.0	2082.0	0.3348930660938375	0.0	6482.879638671875	15823.0	0.73	813.0	-0.4898785425101215	-652.0	-238.0	0.09109311740890688	0.04587857470561248	-67.0	-1.0003537264340832	55.0	-0.13275940652934007	-142.0	
2013.0	0.1008011890669984	10.080118906699841	1248.0	2082.0	0.32309231773551017	0.0	6502.410888671875	16463.0	0.73	813.0	-0.4898785425101215	-652.0	-238.0	0.09109311740890688	-0.015292858235204161	-62.0	-1.058662809564379	59.0	-0.21006491565126756	-138.0	
2015.0	0.1006816954029997	10.068169540299971	1249.0	2082.0	0.2987557499287041	0.0	6521.942138671875	17103.0	0.73	813.0	-0.4898785425101215	-652.0	-238.0	0.09109311740890688	0.09175714941122497	-68.0	-1.0946263803022238	61.0	-0.11835764940989657	-145.0	
2019.0	0.07700367507148755	10.081319888101136	1248.0	2084.0	0.2505892055970749	0.0	6541.473388671875	17743.0	0.73	813.0	-0.4898785425101215	-652.0	-238.0	0.09109311740890688	0.030585716470408322	-62.0	-0.9835942149881264	54.0	-0.20931422970550503	-141.0	
2022.0	0.07712919041717745	10.093871422670126	1247.0	2084.0	0.21469691312865863	0.0	6561.004638671875	18383.0	0.7275	812.0	-0.4817813765182186	-648.0	-239.0	0.0931174089068826	0.061171432940816645	-64.0	-1.0774086451858071	60.0	-0.17956340669123205	-143.0	
2022.0	0.07700728808050225	10.081681189002607	1248.0	2084.0	0.21445188943194152	0.0	6580.535888671875	19023.0	0.7275	812.0	-0.4817813765182186	-648.0	-239.0	0.0931174089068826	-0.030585716470408322	-72.0	-1.0903468729640173	61.0	-0.05693691970401489	-137.0	
2019.0	0.07675987039813717	10.0569394207661	1250.0	2084.0	0.2500991582036407	0.0	6600.067138671875	19663.0	0.7275	812.0	-0.4817813765182186	-648.0	-239.0	0.0931174089068826	-0.061171432940816645	-72.0	-0.9814585909398947	54.0	-0.05584803688377367	-135.0	
2016.0	0.0887805297325678	10.06852916373297	1249.0	2083.0	0.28659573796957544	0.0	6619.598388671875	20303.0	0.72	809.0	-0.4858299595141701	-650.0	-240.0	0.0951417004048583	0.015292858235204161	-75.0	-1.0003578560549549	55.0	-0.010003578560549547	-140.0	
2016.0	0.10068289973933793	10.068289973933794	1249.0	2082.0	0.2867099778736596	0.0	6639.129638671875	20943.0	0.72	809.0	-0.4858299595141701	-650.0	-240.0	0.0951417004048583	0.030585716470408322	-77.0	-1.2166063195981884	69.0	0.018522904120267927	-141.0	
2017.0	0.08878173406890603	10.068649597366795	1249.0	2083.0	0.27454996591453096	0.0	6658.660888671875	21583.0	0.72	809.0	-0.4858299595141701	-650.0	-240.0	0.0951417004048583	-0.0764642911760208	-75.0	-0.9813072262566986	54.0	-0.009813072262566986	-134.0	
2018.0	0.08878293840524426	10.068770031000618	1249.0	2083.0	0.2625041938594865	0.0	6678.192138671875	22223.0	0.735	815.0	-0.49190283400809715	-653.0	-241.0	0.09716599190283401	-0.015292858235204161	-72.0	-0.9679128396184644	53.0	-0.05571257937055936	-138.0	
2018.0	0.07688056839847413	10.069009220799794	1249.0	2084.0	0.26238995395540227	0.0	6697.723388671875	22863.0	0.735	815.0	-0.49190283400809715	-653.0	-241.0	0.09716599190283401	-0.04587857470561248	-59.0	-1.1185020580101221	63.0	-0.2566967591100997	-136.0	
2018.0	0.0770024707351493	10.081199454467312	1248.0	2084.0	0.2626349776521194	0.0	6717.254638671875	23503.0	0.735	815.0	-0.49190283400809715	-653.0	-241.0	0.09716599190283401	-0.030585716470408322	-77.0	-1.152636863686999	65.0	0.01916259867937982	-137.0	
2015.0	0.0769988577261346	10.080838153565841	1248.0	2084.0	0.2987722938172529	0.0	6736.785888671875	24143.0	0.735	815.0	-0.49190283400809715	-653.0	-241.0	0.09716599190283401	0.0764642911760208	-76.0	-1.1567650063420094	65.0	0.0037768335947048117	-144.0	
2017.0	0.07700126639881107	10.081079020833489	1248.0	2084.0	0.27468074970716394	0.0	6756.317138671875	24783.0	0.7275	812.0	-0.48380566801619435	-649.0	-237.0	0.08906882591093118	-0.015292858235204161	-66.0	-1.2592257681170793	72.0	-0.15069261060429495	-138.0	
2016.0	0.10080480207601311	10.080480207601312	1248.0	2082.0	0.28695500157037673	0.0	6775.848388671875	25423.0	0.7275	812.0	-0.48380566801619435	-649.0	-237.0	0.08906882591093118	-0.030585716470408322	-69.0	-1.1667901385516497	66.0	-0.10373480333426593	-137.0	
2017.0	0.10080600641235135	10.080600641235137	1248.0	2082.0	0.27490922951533225	0.0	6795.379638671875	26063.0	0.7275	812.0	-0.48380566801619435	-649.0	-237.0	0.08906882591093118	0.16822144058724578	-71.0	-1.0058606697213448	55.0	-0.07143654132971307	-150.0	
2018.0	0.0770024707351493	10.081199454467312	1248.0	2084.0	0.2626349776521194	0.0	6814.910888671875	26703.0	0.7225	810.0	-0.4939271255060729	-654.0	-242.0	0.09919028340080972	-0.09175714941122497	-58.0	-1.2395593555338598	71.0	-0.273251815743462	-133.0	
2021.0	0.06510371373739388	10.08179994516796	1248.0	2085.0	0.2263834215829018	0.0	6834.442138671875	27343.0	0.7225	810.0	-0.4939271255060729	-654.0	-242.0	0.09919028340080972	-0.061171432940816645	-55.0	-1.3787487707044979	80.0	-0.3206771608695431	-135.0	
2022.0	0.07700728808050225	10.081681189002607	1248.0	2084.0	0.21445188943194152	0.0	6853.973388671875	27983.0	0.7225	810.0	-0.4939271255060729	-654.0	-242.0	0.09919028340080972	0.015292858235204161	-86.0	-1.1097105561808447	62.0	0.1576922146775655	-140.0	
2021.0	0.08890845375093416	10.081321565569606	1248.0	2083.0	0.22661190139107015	0.0	6873.504638671875	28623.0	0.7225	810.0	-0.4939271255060729	-654.0	-242.0	0.09919028340080972	0.12234286588163329	-73.0	-0.8812868827066885	47.0	-0.0395018361433167	-147.0	
2018.0	0.08890484074191946	10.080960264668136	1248.0	2083.0	0.2627492175562036	0.0	6893.035888671875	29263.0	0.7275	812.0	-0.5020242914979757	-658.0	-244.0	0.10323886639676114	-0.04587857470561248	-73.0	-1.1514114925483798	65.0	-0.04220308224173361	-136.0	
2017.0	0.1127083764191215	10.080361451435959	1248.0	2081.0	0.27502346941941647	0.0	6912.567138671875	29903.0	0.7275	812.0	-0.5020242914979757	-658.0	-244.0	0.10323886639676114	-0.1988071570576541	-80.0	-1.1925110998040023	68.0	0.06479730729258451	-126.0	
2014.0	0.0889000233965665	10.080478530132842	1248.0	2083.0	0.31093230577638153	0.0	6932.098388671875	30543.0	0.7275	812.0	-0.5020242914979757	-658.0	-244.0	0.10323886639676114	0.015292858235204161	-69.0	-1.1532443872302192	65.0	-0.10359934582105162	-140.0	
2019.0	0.07688177273481236	10.069129654433619	1249.0	2084.0	0.2503441819003578	0.0	6951.629638671875	31183.0	0.735	815.0	-0.4939271255060729	-654.0	-258.0	0.13157894736842105	0.09175714941122497	-75.0	-1.3264110489632308	76.0	-0.013264110489632308	-145.0	
2023.0	0.0533256547399754	10.094470235902302	1247.0	2086.0	0.20242266126544578	0.0	6971.160888671875	31823.0	0.735	815.0	-0.4939271255060729	-654.0	-258.0	0.13157894736842105	-0.015292858235204161	-65.0	-1.2129302061823304	69.0	-0.16557413864307235	-138.0	
2020.0	0.0768829770711506	10.069250088067442	1249.0	2084.0	0.23829840984531334	0.0	6990.692138671875	32463.0	0.735	815.0	-0.4939271255060729	-654.0	-258.0	0.13157894736842105	0.0764642911760208	-65.0	-1.032031595402414	57.0	-0.16376515253527318	-144.0	
2020.0	0.0768829770711506	10.069250088067442	1249.0	2084.0	0.23829840984531334	0.0	7010.223388671875	33103.0	0.7225	810.0	-0.48785425101214575	-651.0	-256.0	0.12753036437246965	0.09175714941122497	-67.0	-1.0329501075537695	57.0	-0.13308537034053694	-145.0	
2016.0	0.08890243206924298	10.080719397400488	1248.0	2083.0	0.2868407616662926	0.0	7029.754638671875	33743.0	0.7225	810.0	-0.48785425101214575	-651.0	-256.0	0.12753036437246965	0.13763572411683744	-75.0	-1.0975353462499224	61.0	-0.010975353462499223	-148.0	
2015.0	0.07687695538945942	10.068647919898323	1249.0	2084.0	0.2985272701205357	0.0	7049.285888671875	34383.0	0.7225	810.0	-0.48785425101214575	-651.0	-256.0	0.12753036437246965	-0.04587857470561248	-63.0	-0.9499279570338883	52.0	-0.19363308346783775	-136.0	
2015.0	0.1006816954029997	10.068169540299971	1249.0	2082.0	0.2987557499287041	0.0	7068.817138671875	35023.0	0.7225	810.0	-0.48785425101214575	-651.0	-256.0	0.12753036437246965	-0.16822144058724578	-56.0	-1.128529255030198	64.0	-0.3028304820546752	-128.0	
2019.0	0.07688177273481236	10.069129654433619	1249.0	2084.0	0.2503441819003578	0.0	7088.348388671875	35663.0	0.735	815.0	-0.5	-657.0	-249.0	0.11336032388663968	-0.10705000764642914	-56.0	-1.2694022650099155	73.0	-0.3042392121544724	-132.0	
2021.0	0.0649818114007187	10.069609711500442	1249.0	2085.0	0.22613839788618467	0.0	7107.879638671875	36303.0	0.735	815.0	-0.5	-657.0	-249.0	0.11336032388663968	0.09175714941122497	-71.0	-1.1258480904105306	63.0	-0.07263641553660494	-145.0	
2020.0	0.07700487940782577	10.08144032173496	1248.0	2084.0	0.23854343354203048	0.0	7127.410888671875	36943.0	0.735	815.0	-0.5	-657.0	-249.0	0.11336032388663968	-0.015292858235204161	-67.0	-1.1209528002873608	63.0	-0.13396539726787285	-138.0	
2021.0	0.07700608374416401	10.081560755368782	1248.0	2084.0	0.226497661486986	0.0	7146.942138671875	37583.0	0.7275	812.0	-0.4979757085020243	-656.0	-245.0	0.10526315789473684	0.10705000764642914	-66.0	-1.2179768609886965	69.0	-0.15028012153301112	-146.0	
2018.0	0.10068530841201441	10.068530841201442	1249.0	2082.0	0.26261843376357064	0.0	7166.473388671875	38223.0	0.7275	812.0	-0.4979757085020243	-656.0	-245.0	0.10526315789473684	0.18351429882244993	-75.0	-1.0686088841147863	59.0	-0.010686088841147863	-151.0	
2016.0	0.0887805297325678	10.06852916373297	1249.0	2083.0	0.28659573796957544	0.0	7186.004638671875	38863.0	0.7275	812.0	-0.4979757085020243	-656.0	-245.0	0.10526315789473684	-0.015292858235204161	-72.0	-0.8602478639225254	46.0	-0.05463592961359997	-138.0	
2016.0	0.07687815972579765	10.068768353532146	1249.0	2084.0	0.2864814980654913	0.0	7205.535888671875	39503.0	0.7275	812.0	-0.4979757085020243	-656.0	-245.0	0.10526315789473684	0.030585716470408322	-66.0	-1.1072536194722986	62.0	-0.14917288911784715	-141.0	
2017.0	0.1127083764191215	10.080361451435959	1248.0	2081.0	0.27502346941941647	0.0	7225.067138671875	40143.0	0.73	813.0	-0.4858299595141701	-650.0	-259.0	0.13360323886639677	0.09175714941122497	-71.0	-1.033563825528297	57.0	-0.0717135728877826	-145.0	
2019.0	0.0887841427415825	10.068890464634443	1249.0	2083.0	0.250458421804442	0.0	7244.598388671875	40783.0	0.73	813.0	-0.4858299595141701	-650.0	-259.0	0.13360323886639677	-0.13763572411683744	-66.0	-1.1774289887358174	67.0	-0.14987464281048235	-130.0	
2020.0	0.07712678174450097	10.093630555402479	1247.0	2084.0	0.2387884572387476	0.0	7264.129638671875	41423.0	0.73	813.0	-0.4858299595141701	-650.0	-259.0	0.13360323886639677	0.16822144058724578	-70.0	-1.0826107942962409	60.0	-0.08754852623358694	-150.0	
2019.0	0.10068651274835265	10.068651274835265	1249.0	2082.0	0.25057266170852616	0.0	7283.660888671875	42063.0	0.725	811.0	-0.47975708502024295	-647.0	-261.0	0.13765182186234817	-0.0764642911760208	-58.0	-0.9940796356786622	55.0	-0.27079701854491	-134.0	
2016.0	0.08890243206924298	10.080719397400488	1248.0	2083.0	0.2868407616662926	0.0	7303.192138671875	42703.0	0.725	811.0	-0.47975708502024295	-647.0	-261.0	0.13765182186234817	0.030585716470408322	-65.0	-1.0455773467238443	58.0	-0.1639006100484875	-141.0	
2016.0	0.07700006206247284	10.080958587199664	1248.0	2084.0	0.28672652176220836	0.0	7322.723388671875	43343.0	0.725	811.0	-0.47975708502024295	-647.0	-261.0	0.13765182186234817	0.09175714941122497	-87.0	-1.0667801190538184	59.0	0.1734660027069607	-145.0	
2016.0	0.0887805297325678	10.06852916373297	1249.0	2083.0	0.28659573796957544	0.0	7342.254638671875	43983.0	0.73	813.0	-0.4817813765182186	-648.0	-257.0	0.12955465587044535	-0.10705000764642914	-75.0	-1.1954138713203935	68.0	-0.011954138713203933	-132.0	
2019.0	0.06497940272804223	10.069368844232795	1249.0	2085.0	0.25022994199627363	0.0	7361.785888671875	44623.0	0.73	813.0	-0.4817813765182186	-648.0	-257.0	0.12955465587044535	-0.061171432940816645	-77.0	-1.0898907141039933	61.0	0.01979006017520988	-135.0	
2019.0	0.07688177273481236	10.069129654433619	1249.0	2084.0	0.2503441819003578	0.0	7381.317138671875	45263.0	0.73	813.0	-0.4817813765182186	-648.0	-257.0	0.12955465587044535	-0.18351429882244993	-67.0	-0.8988946640904734	49.0	-0.13174481590590398	-127.0	
2019.0	0.08890604507825768	10.08108069830196	1248.0	2083.0	0.25070344550115914	0.0	7400.848388671875	45903.0	0.73	813.0	-0.4817813765182186	-648.0	-257.0	0.12955465587044535	0.030585716470408322	-55.0	-1.0901851842286423	61.0	-0.3177915250047846	-141.0	
2018.0	0.11258767841878456	10.068291651402266	1249.0	2081.0	0.26273267366765485	0.0	7420.379638671875	46543.0	0.725	811.0	-0.47975708502024295	-647.0	-262.0	0.1396761133603239	-0.0764642911760208	-70.0	-0.9805400787885392	54.0	-0.08652781907850993	-134.0	
2015.0	0.08877932539622956	10.068408730099147	1249.0	2083.0	0.2986415100246199	0.0	7439.910888671875	47183.0	0.725	811.0	-0.47975708502024295	-647.0	-262.0	0.1396761133603239	0.09175714941122497	-69.0	-0.9871148340999166	54.0	-0.1019380502897486	-145.0	
2016.0	0.07687815972579765	10.068768353532146	1249.0	2084.0	0.2864814980654913	0.0	7459.442138671875	47823.0	0.725	811.0	-0.47975708502024295	-647.0	-262.0	0.1396761133603239	0.12234286588163329	-70.0	-1.1576793888724934	65.0	-0.08829921217934947	-147.0	
2018.0	0.08890484074191946	10.080960264668136	1248.0	2083.0	0.2627492175562036	0.0	7478.973388671875	48463.0	0.7275	812.0	-0.5060728744939271	-660.0	-238.0	0.09109311740890688	-0.13763572411683744	-63.0	-1.0385423029315712	58.0	-0.1945192269268146	-130.0	
2020.0	0.08890724941459592	10.081201131935783	1248.0	2083.0	0.23865767344611466	0.0	7498.504638671875	49103.0	0.7275	812.0	-0.5060728744939271	-660.0	-238.0	0.09109311740890688	0.015292858235204161	-60.0	-1.1980056542286492	68.0	-0.24214731141416007	-140.0	
2020.0	0.06510250940105564	10.081679511534135	1248.0	2085.0	0.2384291936379463	0.0	7518.035888671875	49743.0	0.7275	812.0	-0.5060728744939271	-660.0	-238.0	0.09109311740890688	-0.09175714941122497	-68.0	-1.041144409892006	58.0	-0.1178228297057944	-133.0	
2018.0	0.08902674307859465	10.093150498335655	1247.0	2083.0	0.2629942412529207	0.0	7537.567138671875	50383.0	0.735	815.0	-0.4858299595141701	-650.0	-255.0	0.12550607287449392	0.2752714482336749	-73.0	-1.0258298116709565	56.0	-0.04094726543295937	-157.0	
2016.0	0.07700006206247284	10.080958587199664	1248.0	2084.0	0.28672652176220836	0.0	7557.098388671875	51023.0	0.735	815.0	-0.4858299595141701	-650.0	-255.0	0.12550607287449392	0.0	-67.0	-0.9677573453143967	53.0	-0.13243344271814322	-139.0	
2016.0	0.11270717208278326	10.080241017802136	1248.0	2081.0	0.2870692414744609	0.0	7576.629638671875	51663.0	0.735	815.0	-0.4858299595141701	-650.0	-255.0	0.12550607287449392	0.09175714941122497	-69.0	-1.0024955449136224	55.0	-0.10209185739788565	-145.0	
2015.0	0.08877932539622956	10.068408730099147	1249.0	2083.0	0.2986415100246199	0.0	7596.160888671875	52303.0	0.735	815.0	-0.4858299595141701	-650.0	-255.0	0.12550607287449392	0.0764642911760208	-69.0	-1.1403102890728807	64.0	-0.10347000483947824	-144.0	
2018.0	0.07688056839847413	10.069009220799794	1249.0	2084.0	0.26238995395540227	0.0	7615.692138671875	52943.0	0.725	811.0	-0.4757085020242915	-645.0	-261.0	0.13765182186234817	0.0	-64.0	-1.1211041649705569	63.0	-0.18000036188907953	-139.0	
2020.0	0.0768829770711506	10.069250088067442	1249.0	2084.0	0.23829840984531334	0.0	7635.223388671875	53583.0	0.725	811.0	-0.4757085020242915	-645.0	-261.0	0.13765182186234817	0.04587857470561248	-83.0	-1.095092863214427	61.0	0.11180494063285498	-142.0	
2019.0	0.0651013050647174	10.081559077900312	1248.0	2085.0	0.25047496569299077	0.0	7654.754638671875	54223.0	0.725	811.0	-0.4757085020242915	-645.0	-261.0	0.13765182186234817	0.04587857470561248	-70.0	-1.0469561473560955	58.0	-0.08719197976418548	-142.0	
2018.0	0.08866103606856907	10.056579797333098	1250.0	2083.0	0.26225917016276934	0.0	7674.285888671875	54863.0	0.7225	810.0	-0.47975708502024295	-647.0	-259.0	0.13360323886639677	-0.04587857470561248	-64.0	-1.073127073037165	60.0	-0.17952059096974562	-136.0	
2019.0	0.08890604507825768	10.08108069830196	1248.0	2083.0	0.25070344550115914	0.0	7693.817138671875	55503.0	0.7225	810.0	-0.47975708502024295	-647.0	-259.0	0.13360323886639677	0.04587857470561248	-61.0	-1.0455752819134085	58.0	-0.22527852403288276	-142.0	
2015.0	0.06509648771936445	10.081077343365017	1248.0	2085.0	0.2986580539131687	0.0	7713.348388671875	56143.0	0.7225	810.0	-0.47975708502024295	-647.0	-259.0	0.13360323886639677	0.015292858235204161	-60.0	-1.1518635217875324	65.0	-0.24168589008974892	-140.0	
2018.0	0.08878293840524426	10.068770031000618	1249.0	2083.0	0.2625041938594865	0.0	7732.879638671875	56783.0	0.7225	810.0	-0.47975708502024295	-647.0	-259.0	0.13360323886639677	-0.015292858235204161	-77.0	-0.9686799870866238	53.0	0.021002167445383572	-138.0	
2020.0	0.07676107473447541	10.057059854399922	1250.0	2084.0	0.23805338614859622	0.0	7752.410888671875	57423.0	0.73	813.0	-0.4858299595141701	-650.0	-257.0	0.12955465587044535	-0.015292858235204161	-69.0	-1.0135946835786855	56.0	-0.1022028487845363	-138.0	
2019.0	0.0886622404049073	10.056700230966923	1250.0	2083.0	0.25021339810772486	0.0	7771.942138671875	58063.0	0.73	813.0	-0.4858299595141701	-650.0	-257.0	0.12955465587044535	0.04587857470561248	-65.0	-1.1692346863975809	66.0	-0.16513718344522488	-142.0	
2019.0	0.0887841427415825	10.068890464634443	1249.0	2083.0	0.250458421804442	0.0	7791.473388671875	58703.0	0.73	813.0	-0.4858299595141701	-650.0	-257.0	0.12955465587044535	0.061171432940816645	-69.0	-1.1089372142813778	62.0	-0.10315627409156322	-143.0	
2016.0	0.07700006206247284	10.080958587199664	1248.0	2084.0	0.28672652176220836	0.0	7811.004638671875	59343.0	0.7225	810.0	-0.4939271255060729	-654.0	-252.0	0.1194331983805668	-0.015292858235204161	-67.0	-1.0132878245914219	56.0	-0.13288874751091345	-138.0	
2018.0	0.06510010072837916	10.081438644266488	1248.0	2085.0	0.26252073774803525	0.0	7830.535888671875	59983.0	0.7225	810.0	-0.4939271255060729	-654.0	-252.0	0.1194331983805668	0.0	-77.0	-1.2000023024562994	68.0	0.01868894429168682	-139.0	
2018.0	0.0770024707351493	10.081199454467312	1248.0	2084.0	0.2626349776521194	0.0	7850.067138671875	60623.0	0.7225	810.0	-0.4939271255060729	-654.0	-252.0	0.1194331983805668	-0.12234286588163329	-72.0	-0.9943926890972333	55.0	-0.05597737786534705	-131.0	
2020.0	0.06510250940105564	10.081679511534135	1248.0	2085.0	0.2384291936379463	0.0	7869.598388671875	61263.0	0.7225	810.0	-0.4858299595141701	-650.0	-261.0	0.13765182186234817	-0.030585716470408322	-67.0	-1.1049604363095635	62.0	-0.13380547362809486	-137.0	
2020.0	0.07700487940782577	10.08144032173496	1248.0	2084.0	0.23854343354203048	0.0	7889.129638671875	61903.0	0.7225	810.0	-0.4858299595141701	-650.0	-261.0	0.13765182186234817	0.0	-77.0	-1.0769566159466546	60.0	0.019919401156783263	-139.0	
2019.0	0.07688177273481236	10.069129654433619	1249.0	2084.0	0.2503441819003578	0.0	7908.660888671875	62543.0	0.7225	810.0	-0.4858299595141701	-650.0	-261.0	0.13765182186234817	0.030585716470408322	-57.0	-1.0289691999610837	57.0	-0.28649039784585917	-141.0	
2019.0	0.0887841427415825	10.068890464634443	1249.0	2083.0	0.250458421804442	0.0	7928.192138671875	63183.0	0.7225	810.0	-0.4858299595141701	-650.0	-261.0	0.13765182186234817	0.015292858235204161	-74.0	-1.138630823884673	64.0	-0.026730791896971636	-140.0	
2016.0	0.10068289973933793	10.068289973933794	1249.0	2082.0	0.2867099778736596	0.0	7947.723388671875	63823.0	0.725	811.0	-0.4817813765182186	-648.0	-252.0	0.1194331983805668	-0.0764642911760208	-63.0	-1.1025117588427606	62.0	-0.1951589214859265	-134.0	
2017.0	0.10068410407567617	10.068410407567619	1249.0	2082.0	0.2746642058186151	0.0	7967.254638671875	64463.0	0.725	811.0	-0.4817813765182186	-648.0	-252.0	0.1194331983805668	-0.0764642911760208	-59.0	-1.071136619240822	60.0	-0.2562231047224067	-134.0	
2016.0	0.07687815972579765	10.068768353532146	1249.0	2084.0	0.2864814980654913	0.0	7986.785888671875	65103.0	0.725	811.0	-0.4817813765182186	-648.0	-252.0	0.1194331983805668	0.10705000764642914	-69.0	-1.003107198077714	55.0	-0.10209797392952658	-146.0	
2019.0	0.0887841427415825	10.068890464634443	1249.0	2083.0	0.250458421804442	0.0	8006.317138671875	207.0	0.7275	812.0	-0.4757085020242915	-645.0	-249.0	0.11336032388663968	0.061171432940816645	-66.0	-1.0161926609182488	56.0	-0.14826227953230664	-143.0	
2020.0	0.08878534707792074	10.069010898268266	1249.0	2083.0	0.23841264974939752	0.0	8025.848388671875	847.0	0.7275	812.0	-0.4757085020242915	-645.0	-249.0	0.11336032388663968	-0.10705000764642914	-73.0	-1.0566806150097792	59.0	-0.0412557734663476	-132.0	
2019.0	0.08890604507825768	10.08108069830196	1248.0	2083.0	0.25070344550115914	0.0	8045.379638671875	1487.0	0.7275	812.0	-0.4757085020242915	-645.0	-249.0	0.11336032388663968	0.061171432940816645	-71.0	-1.2015283381508752	68.0	-0.07339321801400837	-143.0	
2018.0	0.08890484074191946	10.080960264668136	1248.0	2083.0	0.2627492175562036	0.0	8064.910888671875	2127.0	0.7275	812.0	-0.4757085020242915	-645.0	-249.0	0.11336032388663968	0.015292858235204161	-69.0	-1.014817989906869	56.0	-0.10221508184781812	-140.0	
2018.0	0.08878293840524426	10.068770031000618	1249.0	2083.0	0.2625041938594865	0.0	8084.442138671875	2767.0	0.7175	808.0	-0.48380566801619435	-649.0	-248.0	0.11133603238866396	-0.061171432940816645	-58.0	-1.0715948429112818	60.0	-0.27157217061723626	-135.0	
2017.0	0.06509889639204092	10.081318210632665	1248.0	2085.0	0.27456650980307973	0.0	8103.973388671875	3407.0	0.7175	808.0	-0.48380566801619435	-649.0	-248.0	0.11133603238866396	-0.0764642911760208	-62.0	-1.1177390401628342	63.0	-0.21065567795725212	-134.0	
2019.0	0.0887841427415825	10.068890464634443	1249.0	2083.0	0.250458421804442	0.0	8123.504638671875	4047.0	0.7175	808.0	-0.48380566801619435	-649.0	-248.0	0.11133603238866396	0.13763572411683744	-71.0	-1.0353987850205724	57.0	-0.07173192248270535	-148.0	
2017.0	0.08865983173223084	10.056459363699275	1250.0	2083.0	0.2743049422178139	0.0	8143.035888671875	4687.0	0.725	811.0	-0.4817813765182186	-648.0	-246.0	0.10728744939271255	0.04587857470561248	-72.0	-1.1395472712255927	64.0	-0.05742892368663065	-142.0	
2019.0	0.07688177273481236	10.069129654433619	1249.0	2084.0	0.2503441819003578	0.0	8162.567138671875	5327.0	0.725	811.0	-0.4817813765182186	-648.0	-246.0	0.10728744939271255	-0.015292858235204161	-70.0	-1.0445095346997284	58.0	-0.08716751363762182	-138.0	
2019.0	0.07688177273481236	10.069129654433619	1249.0	2084.0	0.2503441819003578	0.0	8182.098388671875	5967.0	0.725	811.0	-0.4817813765182186	-648.0	-246.0	0.10728744939271255	0.061171432940816645	-74.0	-1.1097043617495372	62.0	-0.026441527275620276	-143.0	
2016.0	0.0887805297325678	10.06852916373297	1249.0	2083.0	0.28659573796957544	0.0	8201.629638671875	6607.0	0.7275	812.0	-0.4858299595141701	-650.0	-244.0	0.10323886639676114	-0.030585716470408322	-72.0	-0.9980626080817838	55.0	-0.056014077055192554	-137.0	
2019.0	0.0887841427415825	10.068890464634443	1249.0	2083.0	0.250458421804442	0.0	8221.160888671875	7247.0	0.7275	812.0	-0.4858299595141701	-650.0	-244.0	0.10323886639676114	0.0764642911760208	-71.0	-1.1406171480601444	64.0	-0.07278410611310107	-144.0	
2020.0	0.07700487940782577	10.08144032173496	1248.0	2084.0	0.23854343354203048	0.0	8240.692138671875	7887.0	0.7275	812.0	-0.4858299595141701	-650.0	-244.0	0.10323886639676114	-0.04587857470561248	-61.0	-1.1034282061836804	62.0	-0.22585705327558547	-136.0	
2019.0	0.06497940272804223	10.069368844232795	1249.0	2085.0	0.25022994199627363	0.0	8260.223388671875	8527.0	0.7275	812.0	-0.4858299595141701	-650.0	-244.0	0.10323886639676114	-0.015292858235204161	-61.0	-1.1354129341392751	64.0	-0.22617690055514142	-138.0	
2018.0	0.10080721074868959	10.08072107486896	1248.0	2082.0	0.2628634574602878	0.0	8279.754638671875	9167.0	0.72	809.0	-0.48380566801619435	-649.0	-238.0	0.09109311740890688	-0.015292858235204161	-71.0	-0.9216172776837157	50.0	-0.07059410740933678	-138.0	
2018.0	0.10068530841201441	10.068530841201442	1249.0	2082.0	0.26261843376357064	0.0	8299.285888671875	9807.0	0.72	809.0	-0.48380566801619435	-649.0	-238.0	0.09109311740890688	-0.030585716470408322	-64.0	-1.1045001478286678	62.0	-0.17983432171766067	-137.0	
2019.0	0.07700367507148755	10.081319888101136	1248.0	2084.0	0.2505892055970749	0.0	8318.817138671875	10447.0	0.72	809.0	-0.48380566801619435	-649.0	-238.0	0.09109311740890688	0.10705000764642914	-71.0	-1.0803176111335058	60.0	-0.07218111074383468	-146.0	
2019.0	0.10093031742170303	10.093031742170302	1247.0	2082.0	0.25106270910196044	0.0	8338.348388671875	11087.0	0.725	811.0	-0.48380566801619435	-649.0	-240.0	0.0951417004048583	-0.09175714941122497	-76.0	-1.0577525566547665	59.0	0.004766958091577239	-133.0	
2017.0	0.08878173406890603	10.068649597366795	1249.0	2083.0	0.27454996591453096	0.0	8357.879638671875	11727.0	0.725	811.0	-0.48380566801619435	-649.0	-240.0	0.0951417004048583	0.13763572411683744	-73.0	-1.035705644007836	57.0	-0.041046023756328175	-148.0	
2019.0	0.07700367507148755	10.081319888101136	1248.0	2084.0	0.2505892055970749	0.0	8377.410888671875	12367.0	0.725	811.0	-0.48380566801619435	-649.0	-240.0	0.0951417004048583	0.0764642911760208	-79.0	-0.9726567650584381	53.0	0.05165136698191524	-144.0	
2019.0	0.0887841427415825	10.068890464634443	1249.0	2083.0	0.250458421804442	0.0	8396.942138671875	13007.0	0.725	811.0	-0.48380566801619435	-649.0	-240.0	0.0951417004048583	0.061171432940816645	-74.0	-1.0635622293084204	59.0	-0.025980105951209108	-143.0	
2018.0	0.0770024707351493	10.081199454467312	1248.0	2084.0	0.2626349776521194	0.0	8416.473388671875	13647.0	0.7325	814.0	-0.4858299595141701	-650.0	-243.0	0.10121457489878542	-0.061171432940816645	-68.0	-0.8885606080831336	48.0	-0.11629699168770567	-135.0	
2018.0	0.07688056839847413	10.069009220799794	1249.0	2084.0	0.26238995395540227	0.0	8436.004638671875	14287.0	0.7325	814.0	-0.4858299595141701	-650.0	-243.0	0.10121457489878542	0.0	-68.0	-1.029433618062851	57.0	-0.11770572178750285	-139.0	
2018.0	0.06497819839170399	10.06924841059897	1249.0	2085.0	0.2622757140513181	0.0	8455.535888671875	14927.0	0.7325	814.0	-0.4858299595141701	-650.0	-243.0	0.10121457489878542	0.04587857470561248	-72.0	-1.0011208739022426	55.0	-0.056044659713397144	-142.0	
2018.0	0.08890484074191946	10.080960264668136	1248.0	2083.0	0.2627492175562036	0.0	8475.067138671875	15567.0	0.72	809.0	-0.49190283400809715	-653.0	-241.0	0.09716599190283401	0.12234286588163329	-62.0	-1.0487869772274991	58.0	-0.20996615732789878	-147.0	
2017.0	0.08890363640558122	10.080839831034313	1248.0	2083.0	0.2747949896112481	0.0	8494.598388671875	16207.0	0.72	809.0	-0.49190283400809715	-653.0	-241.0	0.09716599190283401	-0.12234286588163329	-77.0	-1.2258704987709763	70.0	0.018430262328540045	-131.0	
2017.0	0.08878173406890603	10.068649597366795	1249.0	2083.0	0.27454996591453096	0.0	8514.129638671875	16847.0	0.72	809.0	-0.49190283400809715	-653.0	-241.0	0.09716599190283401	-0.061171432940816645	-72.0	-0.9814585909398947	54.0	-0.05584803688377367	-135.0	
2018.0	0.06510010072837916	10.081438644266488	1248.0	2085.0	0.26252073774803525	0.0	8533.660888671875	17487.0	0.7225	810.0	-0.49190283400809715	-653.0	-236.0	0.08704453441295547	0.12234286588163329	-63.0	-1.1104632499759537	62.0	-0.1952384363972584	-147.0	
2018.0	0.08878293840524426	10.068770031000618	1249.0	2083.0	0.2625041938594865	0.0	8553.192138671875	18127.0	0.7225	810.0	-0.49190283400809715	-653.0	-236.0	0.08704453441295547	-0.04587857470561248	-65.0	-1.180945478226736	67.0	-0.16525429136351644	-136.0	
2016.0	0.0887805297325678	10.06852916373297	1249.0	2083.0	0.28659573796957544	0.0	8572.723388671875	18767.0	0.7225	810.0	-0.49190283400809715	-653.0	-236.0	0.08704453441295547	-0.10705000764642914	-64.0	-1.13220330363562	64.0	-0.18011135327573016	-132.0	
2018.0	0.10092911308536479	10.092911308536479	1247.0	2082.0	0.2631084811570049	0.0	8592.254638671875	19407.0	0.7225	810.0	-0.49190283400809715	-653.0	-236.0	0.08704453441295547	0.061171432940816645	-61.0	-0.9231412485678556	50.0	-0.22405418369942726	-143.0	
2018.0	0.08878293840524426	10.068770031000618	1249.0	2083.0	0.2625041938594865	0.0	8611.785888671875	20047.0	0.7275	812.0	-0.5	-657.0	-242.0	0.09919028340080972	-0.030585716470408322	-74.0	-1.1060344427649869	62.0	-0.026404828085774774	-137.0	
2019.0	0.07688177273481236	10.069129654433619	1249.0	2084.0	0.2503441819003578	0.0	8631.317138671875	20687.0	0.7275	812.0	-0.5	-657.0	-242.0	0.09919028340080972	-0.030585716470408322	-81.0	-1.1532505816615266	65.0	0.08053439613213417	-137.0	
2019.0	0.08890604507825768	10.08108069830196	1248.0	2083.0	0.25070344550115914	0.0	8650.848388671875	21327.0	0.7275	812.0	-0.5	-657.0	-242.0	0.09919028340080972	-0.13763572411683744	-69.0	-1.0394628798933625	58.0	-0.10246153074768306	-130.0	
2019.0	0.10056461041167745	10.056461041167745	1250.0	2082.0	0.2503276380118091	0.0	8670.379638671875	21967.0	0.7275	812.0	-0.4959514170040486	-655.0	-247.0	0.10931174089068826	-0.061171432940816645	-69.0	-1.242470386291994	71.0	-0.10449160581166937	-135.0	
2018.0	0.06497819839170399	10.06924841059897	1249.0	2085.0	0.2622757140513181	0.0	8689.910888671875	22607.0	0.7275	812.0	-0.4959514170040486	-655.0	-247.0	0.10931174089068826	0.015292858235204161	-81.0	-1.2166083844086242	69.0	0.07990081810466321	-140.0	
2017.0	0.07687936406213589	10.068888787165971	1249.0	2084.0	0.27443572601044675	0.0	8709.442138671875	23247.0	0.7275	812.0	-0.4959514170040486	-655.0	-247.0	0.10931174089068826	-0.10705000764642914	-67.0	-1.2249478569987493	70.0	-0.13500534783498674	-132.0	
2018.0	0.10056340607533922	10.056340607533922	1250.0	2082.0	0.26237341006685355	0.0	8728.973388671875	23887.0	0.7275	812.0	-0.4959514170040486	-655.0	-247.0	0.10931174089068826	0.12234286588163329	-68.0	-1.2035146623263466	68.0	-0.1194465322301378	-147.0	
2019.0	0.07688177273481236	10.069129654433619	1249.0	2084.0	0.2503441819003578	0.0	8748.504638671875	24527.0	0.725	811.0	-0.49190283400809715	-653.0	-248.0	0.11133603238866396	-0.1529285823520416	-57.0	-1.160055759315333	66.0	-0.28780126343940166	-129.0	
2018.0	0.0770024707351493	10.081199454467312	1248.0	2084.0	0.2626349776521194	0.0	8768.035888671875	25167.0	0.725	811.0	-0.49190283400809715	-653.0	-248.0	0.11133603238866396	0.015292858235204161	-68.0	-0.8916188739035924	48.0	-0.11632757434591026	-140.0	
2019.0	0.0651013050647174	10.081559077900312	1248.0	2085.0	0.25047496569299077	0.0	8787.567138671875	25807.0	0.725	811.0	-0.49190283400809715	-653.0	-248.0	0.11133603238866396	0.04587857470561248	-65.0	-0.9846661566331139	54.0	-0.1632914981475802	-142.0	
2018.0	0.08890484074191946	10.080960264668136	1248.0	2083.0	0.2627492175562036	0.0	8807.098388671875	26447.0	0.73	813.0	-0.4939271255060729	-654.0	-257.0	0.12955465587044535	-0.030585716470408322	-68.0	-0.9974488901072563	55.0	-0.1173858745079469	-137.0	
2018.0	0.10080721074868959	10.08072107486896	1248.0	2082.0	0.2628634574602878	0.0	8826.629638671875	27087.0	0.73	813.0	-0.4939271255060729	-654.0	-257.0	0.12955465587044535	0.10705000764642914	-64.0	-1.356096399324783	78.0	-0.1823502842326218	-146.0	
2017.0	0.10068410407567617	10.068410407567619	1249.0	2082.0	0.2746642058186151	0.0	8846.160888671875	27727.0	0.73	813.0	-0.4939271255060729	-654.0	-257.0	0.12955465587044535	-0.04587857470561248	-64.0	-1.1192692054782816	63.0	-0.17998201229415678	-136.0	
2018.0	0.08890484074191946	10.080960264668136	1248.0	2083.0	0.2627492175562036	0.0	8865.692138671875	28367.0	0.7275	812.0	-0.49190283400809715	-653.0	-254.0	0.12348178137651822	0.061171432940816645	-62.0	-1.0771017861985435	60.0	-0.21024930541760922	-143.0	
2019.0	0.08890604507825768	10.08108069830196	1248.0	2083.0	0.25070344550115914	0.0	8885.223388671875	29007.0	0.7275	812.0	-0.49190283400809715	-653.0	-254.0	0.12348178137651822	-0.12234286588163329	-67.0	-1.0859098065113073	61.0	-0.13361496733011233	-131.0	
2021.0	0.08890845375093416	10.081321565569606	1248.0	2083.0	0.22661190139107015	0.0	8904.754638671875	29647.0	0.7275	812.0	-0.49190283400809715	-653.0	-254.0	0.12348178137651822	-0.09175714941122497	-75.0	-1.1806448136707794	67.0	-0.011806448136707795	-133.0	
2018.0	0.08878293840524426	10.068770031000618	1249.0	2083.0	0.2625041938594865	0.0	8924.285888671875	30287.0	0.7275	812.0	-0.49190283400809715	-653.0	-254.0	0.12348178137651822	0.09175714941122497	-68.0	-1.1100070911159294	62.0	-0.11851145651803363	-145.0	
2017.0	0.08890363640558122	10.080839831034313	1248.0	2083.0	0.2747949896112481	0.0	8943.817138671875	30927.0	0.725	811.0	-0.4979757085020243	-656.0	-249.0	0.11336032388663968	0.04587857470561248	-80.0	-1.0484904422924144	58.0	0.0662375138677004	-142.0	
2018.0	0.06497819839170399	10.06924841059897	1249.0	2085.0	0.2622757140513181	0.0	8963.348388671875	31567.0	0.725	811.0	-0.4979757085020243	-656.0	-249.0	0.11336032388663968	-0.10705000764642914	-69.0	-1.2560161376134242	72.0	-0.10462706332488367	-132.0	
2017.0	0.07687936406213589	10.068888787165971	1249.0	2084.0	0.27443572601044675	0.0	8982.879638671875	32207.0	0.725	811.0	-0.4979757085020243	-656.0	-249.0	0.11336032388663968	-0.030585716470408322	-65.0	-1.0277500232537717	57.0	-0.16372233681378678	-137.0	
2018.0	0.08890484074191946	10.080960264668136	1248.0	2083.0	0.2627492175562036	0.0	9002.410888671875	32847.0	0.73	813.0	-0.4979757085020243	-656.0	-249.0	0.11336032388663968	0.10705000764642914	-70.0	-1.141687024894696	64.0	-0.0881392885395715	-146.0	
2017.0	0.08878173406890603	10.068649597366795	1249.0	2083.0	0.27454996591453096	0.0	9021.942138671875	33487.0	0.73	813.0	-0.4979757085020243	-656.0	-249.0	0.11336032388663968	-0.04587857470561248	-63.0	-0.9960700894750051	55.0	-0.19409450479224893	-136.0	
2018.0	0.08866103606856907	10.056579797333098	1250.0	2083.0	0.26225917016276934	0.0	9041.473388671875	34127.0	0.73	813.0	-0.4979757085020243	-656.0	-249.0	0.11336032388663968	-0.0764642911760208	-77.0	-1.135421193381018	64.0	0.01933475538243963	-134.0	
2019.0	0.07688177273481236	10.069129654433619	1249.0	2084.0	0.2503441819003578	0.0	9061.004638671875	34767.0	0.73	813.0	-0.4979757085020243	-656.0	-249.0	0.11336032388663968	-0.10705000764642914	-63.0	-1.0859077417008716	61.0	-0.1949928813145076	-132.0	
2015.0	0.08890122773290474	10.080598963766665	1248.0	2083.0	0.29888653372133706	0.0	9080.535888671875	35407.0	0.73	813.0	-0.48785425101214575	-651.0	-257.0	0.12955465587044535	0.16822144058724578	-62.0	-1.0506219367197744	58.0	-0.20998450692282153	-150.0	
2019.0	0.07700367507148755	10.081319888101136	1248.0	2084.0	0.2505892055970749	0.0	9100.067138671875	36047.0	0.73	813.0	-0.48785425101214575	-651.0	-257.0	0.12955465587044535	-0.16822144058724578	-72.0	-0.992557729604958	55.0	-0.0559590282704243	-128.0	
2017.0	0.08865983173223084	10.056459363699275	1250.0	2083.0	0.2743049422178139	0.0	9119.598388671875	36687.0	0.73	813.0	-0.48785425101214575	-651.0	-257.0	0.12955465587044535	0.04587857470561248	-67.0	-1.0926379913163167	61.0	-0.1336822491781624	-142.0	
2018.0	0.0770024707351493	10.081199454467312	1248.0	2084.0	0.2626349776521194	0.0	9139.129638671875	37327.0	0.725	811.0	-0.47975708502024295	-647.0	-261.0	0.13765182186234817	-0.09175714941122497	-64.0	-1.1174342459860063	63.0	-0.17996366269923403	-133.0	
2020.0	0.07700487940782577	10.08144032173496	1248.0	2084.0	0.23854343354203048	0.0	9158.660888671875	37967.0	0.725	811.0	-0.47975708502024295	-647.0	-261.0	0.13765182186234817	0.0	-68.0	-1.2447635694547292	71.0	-0.11985902130142163	-139.0	
2020.0	0.08878534707792074	10.069010898268266	1249.0	2083.0	0.23841264974939752	0.0	9178.192138671875	38607.0	0.725	811.0	-0.47975708502024295	-647.0	-261.0	0.13765182186234817	0.12234286588163329	-60.0	-1.1561450939361746	65.0	-0.24172870581123534	-147.0	
2018.0	0.10068530841201441	10.068530841201442	1249.0	2082.0	0.26261843376357064	0.0	9197.723388671875	39247.0	0.74	817.0	-0.4858299595141701	-650.0	-260.0	0.13562753036437247	-0.015292858235204161	-81.0	-1.1231008131982072	63.0	0.08083589381676735	-138.0	
2018.0	0.07675866606179893	10.056818987132274	1250.0	2084.0	0.2621449302586852	0.0	9217.254638671875	39887.0	0.74	817.0	-0.4858299595141701	-650.0	-260.0	0.13562753036437247	0.16822144058724578	-76.0	-1.0681506604443265	59.0	0.004662977053681641	-150.0	
2017.0	0.08878173406890603	10.068649597366795	1249.0	2083.0	0.27454996591453096	0.0	9236.785888671875	40527.0	0.74	817.0	-0.4858299595141701	-650.0	-260.0	0.13562753036437247	-0.04587857470561248	-58.0	-1.1798714717713128	67.0	-0.27265493690583653	-136.0	
2017.0	0.1127083764191215	10.080361451435959	1248.0	2081.0	0.27502346941941647	0.0	9256.317138671875	41167.0	0.74	817.0	-0.4858299595141701	-650.0	-260.0	0.13562753036437247	-0.015292858235204161	-74.0	-1.1220268067427839	63.0	-0.026564751725552747	-138.0	
2020.0	0.10080961942136607	10.080961942136607	1248.0	2082.0	0.23877191335019882	0.0	9275.848388671875	41807.0	0.73	813.0	-0.4858299595141701	-650.0	-258.0	0.13157894736842105	-0.09175714941122497	-68.0	-1.194951518029062	68.0	-0.11936090078716496	-133.0	
2018.0	0.10080721074868959	10.08072107486896	1248.0	2082.0	0.2628634574602878	0.0	9295.379638671875	42447.0	0.73	813.0	-0.4858299595141701	-650.0	-258.0	0.13157894736842105	0.061171432940816645	-73.0	-1.0941702214421998	61.0	-0.04163066953067181	-143.0	
2018.0	0.08878293840524426	10.068770031000618	1249.0	2083.0	0.2625041938594865	0.0	9314.910888671875	43087.0	0.73	813.0	-0.4858299595141701	-650.0	-258.0	0.13157894736842105	-0.0764642911760208	-69.0	-1.026528781736024	57.0	-0.10233218976610968	-134.0	
2019.0	0.06485750039136703	10.057178610565275	1250.0	2085.0	0.24998491829955652	0.0	9334.442138671875	43727.0	0.745	819.0	-0.47975708502024295	-647.0	-264.0	0.1437246963562753	0.12234286588163329	-69.0	-1.2498102242610951	71.0	-0.10456500419136039	-147.0	
2018.0	0.10068530841201441	10.068530841201442	1249.0	2082.0	0.26261843376357064	0.0	9353.973388671875	44367.0	0.745	819.0	-0.47975708502024295	-647.0	-264.0	0.1437246963562753	-0.015292858235204161	-72.0	-1.1524813693829314	65.0	-0.05755826466820403	-138.0	
2019.0	0.0887841427415825	10.068890464634443	1249.0	2083.0	0.250458421804442	0.0	9373.504638671875	45007.0	0.745	819.0	-0.47975708502024295	-647.0	-264.0	0.1437246963562753	0.21410001529285827	-65.0	-1.0529171846929455	58.0	-0.16397400842817852	-153.0	
2018.0	0.07688056839847413	10.069009220799794	1249.0	2084.0	0.26238995395540227	0.0	9393.035888671875	45647.0	0.745	819.0	-0.47975708502024295	-647.0	-264.0	0.1437246963562753	-0.10705000764642914	-67.0	-1.1019021704891048	62.0	-0.1337748909698903	-132.0	
2019.0	0.07688177273481236	10.069129654433619	1249.0	2084.0	0.2503441819003578	0.0	9412.567138671875	46287.0	0.7225	810.0	-0.4898785425101215	-652.0	-243.0	0.10121457489878542	0.061171432940816645	-66.0	-1.1238576366141877	63.0	-0.14933892928926604	-143.0	
2018.0	0.08890484074191946	10.080960264668136	1248.0	2083.0	0.2627492175562036	0.0	9432.098388671875	46927.0	0.7225	810.0	-0.4898785425101215	-652.0	-243.0	0.10121457489878542	0.10705000764642914	-74.0	-1.05001647798699	58.0	-0.025844648437994805	-146.0	
2018.0	0.10080721074868959	10.08072107486896	1248.0	2082.0	0.2628634574602878	0.0	9451.629638671875	47567.0	0.7225	810.0	-0.4898785425101215	-652.0	-243.0	0.10121457489878542	0.061171432940816645	-71.0	-1.0169598083864082	56.0	-0.0715475327163637	-143.0	
2019.0	0.07700367507148755	10.081319888101136	1248.0	2084.0	0.2505892055970749	0.0	9471.160888671875	48207.0	0.73	813.0	-0.4757085020242915	-645.0	-260.0	0.13562753036437247	0.09175714941122497	-65.0	-1.2018310675172674	68.0	-0.16546314725642172	-145.0	
2018.0	0.08890484074191946	10.080960264668136	1248.0	2083.0	0.2627492175562036	0.0	9490.692138671875	48847.0	0.73	813.0	-0.4757085020242915	-645.0	-260.0	0.13562753036437247	-0.030585716470408322	-65.0	-1.1046535773222999	62.0	-0.1644913723544721	-137.0	
2017.0	0.07687936406213589	10.068888787165971	1249.0	2084.0	0.27443572601044675	0.0	9510.223388671875	49487.0	0.73	813.0	-0.4757085020242915	-645.0	-260.0	0.13562753036437247	0.12234286588163329	-59.0	-1.2790373509521875	73.0	-0.25830211203952036	-147.0	
2019.0	0.07688177273481236	10.069129654433619	1249.0	2084.0	0.2503441819003578	0.0	9529.754638671875	50127.0	0.7225	810.0	-0.4716599190283401	-643.0	-263.0	0.1417004048582996	0.0764642911760208	-69.0	-1.124929578259175	63.0	-0.1033161977313412	-144.0	
2018.0	0.0770024707351493	10.081199454467312	1248.0	2084.0	0.2626349776521194	0.0	9549.285888671875	50767.0	0.7225	810.0	-0.4716599190283401	-643.0	-263.0	0.1417004048582996	0.030585716470408322	-74.0	-1.170003898676176	66.0	-0.027044522644886666	-141.0	
2018.0	0.08878293840524426	10.068770031000618	1249.0	2083.0	0.2625041938594865	0.0	9568.817138671875	51407.0	0.7225	810.0	-0.4716599190283401	-643.0	-263.0	0.1417004048582996	0.04587857470561248	-69.0	-1.2467519584406364	71.0	-0.1045344215331558	-142.0	
2018.0	0.06497819839170399	10.06924841059897	1249.0	2085.0	0.2622757140513181	0.0	9588.348388671875	52047.0	0.7225	810.0	-0.4716599190283401	-643.0	-263.0	0.1417004048582996	0.015292858235204161	-70.0	-1.1380171059101456	64.0	-0.08810258934972598	-140.0	
2017.0	0.08878173406890603	10.068649597366795	1249.0	2083.0	0.27454996591453096	0.0	9607.879638671875	52687.0	0.7225	810.0	-0.48380566801619435	-649.0	-261.0	0.13765182186234817	0.0	-69.0	-0.9988256259290718	55.0	-0.10205515820804015	-139.0	
2018.0	0.0770024707351493	10.081199454467312	1248.0	2084.0	0.2626349776521194	0.0	9627.410888671875	53327.0	0.7225	810.0	-0.48380566801619435	-649.0	-261.0	0.13765182186234817	-0.0764642911760208	-66.0	-1.149114179764773	65.0	-0.1495914947207719	-134.0	
2020.0	0.08878534707792074	10.069010898268266	1249.0	2083.0	0.23841264974939752	0.0	9646.942138671875	53967.0	0.7225	810.0	-0.48380566801619435	-649.0	-261.0	0.13765182186234817	-0.04587857470561248	-70.0	-1.1355704932537785	64.0	-0.08807812322316232	-136.0	
2018.0	0.10080721074868959	10.08072107486896	1248.0	2082.0	0.2628634574602878	0.0	9666.473388671875	54607.0	0.7225	810.0	-0.4898785425101215	-652.0	-258.0	0.13157894736842105	0.015292858235204161	-62.0	-1.1367896699610904	64.0	-0.2108461842552347	-140.0	
2016.0	0.10080480207601311	10.080480207601312	1248.0	2082.0	0.28695500157037673	0.0	9686.004638671875	55247.0	0.7225	810.0	-0.4898785425101215	-652.0	-258.0	0.13157894736842105	-0.04587857470561248	-70.0	-1.1048090716263674	62.0	-0.08777050900688821	-136.0	
2017.0	0.08878173406890603	10.068649597366795	1249.0	2083.0	0.27454996591453096	0.0	9705.535888671875	55887.0	0.7225	810.0	-0.4898785425101215	-652.0	-258.0	0.13157894736842105	0.015292858235204161	-63.0	-1.0908009670136056	61.0	-0.19504181356763495	-140.0	
2018.0	0.0770024707351493	10.081199454467312	1248.0	2084.0	0.2626349776521194	0.0	9725.067138671875	56527.0	0.72	809.0	-0.4898785425101215	-652.0	-232.0	0.07894736842105263	-0.04587857470561248	-73.0	-1.2283150466169077	70.0	-0.042972117782418884	-136.0	
2019.0	0.08890604507825768	10.08108069830196	1248.0	2083.0	0.25070344550115914	0.0	9744.598388671875	57167.0	0.72	809.0	-0.4959514170040486	-655.0	-232.0	0.07894736842105263	0.030585716470408322	-70.0	-1.1078673374468262	62.0	-0.0878010916650928	-141.0	
2019.0	0.08902794741493288	10.09327093196948	1247.0	2083.0	0.2509484691978762	0.0	9764.129638671875	57807.0	0.72	809.0	-0.4959514170040486	-655.0	-232.0	0.07894736842105263	0.13763572411683744	-65.0	-1.2036660270095427	68.0	-0.16548149685134447	-148.0	
2017.0	0.08890363640558122	10.080839831034313	1248.0	2083.0	0.2747949896112481	0.0	9783.660888671875	58447.0	0.72	809.0	-0.4959514170040486	-655.0	-232.0	0.07894736842105263	-0.030585716470408322	-72.0	-1.0903468729640173	61.0	-0.05693691970401489	-137.0	
2018.0	0.0770024707351493	10.081199454467312	1248.0	2084.0	0.2626349776521194	0.0	9803.192138671875	59087.0	0.72	809.0	-0.4736842105263158	-644.0	-251.0	0.11740890688259109	0.10705000764642914	-62.0	-1.0943174565045244	61.0	-0.21042146212066903	-146.0	
2019.0	0.07688177273481236	10.069129654433619	1249.0	2084.0	0.2503441819003578	0.0	9822.723388671875	59727.0	0.72	809.0	-0.4736842105263158	-644.0	-251.0	0.11740890688259109	-0.18351429882244993	-68.0	-1.0220937800937497	57.0	-0.11763232340781184	-127.0	
2018.0	0.07675866606179893	10.056818987132274	1250.0	2084.0	0.2621449302586852	0.0	9842.254638671875	60367.0	0.72	809.0	-0.4736842105263158	-644.0	-251.0	0.11740890688259109	0.09175714941122497	-59.0	-1.0317226716047143	57.0	-0.25582896524604565	-145.0	
2018.0	0.08878293840524426	10.068770031000618	1249.0	2083.0	0.2625041938594865	0.0	9861.785888671875	61007.0	0.725	811.0	-0.47975708502024295	-647.0	-243.0	0.10121457489878542	0.030585716470408322	-67.0	-1.122787759779636	63.0	-0.1339837468627956	-141.0	
2020.0	0.07700487940782577	10.08144032173496	1248.0	2084.0	0.23854343354203048	0.0	9881.317138671875	61647.0	0.725	811.0	-0.47975708502024295	-647.0	-243.0	0.10121457489878542	-0.2752714482336749	-69.0	-1.1570036879261816	66.0	-0.10363693882801125	-121.0	
2019.0	0.08890604507825768	10.08108069830196	1248.0	2083.0	0.25070344550115914	0.0	9900.848388671875	62287.0	0.725	811.0	-0.47975708502024295	-647.0	-243.0	0.10121457489878542	0.015292858235204161	-65.0	-0.9065392962364024	49.0	-0.1625102295436131	-140.0	
2018.0	0.06510010072837916	10.081438644266488	1248.0	2085.0	0.26252073774803525	0.0	9920.379638671875	62927.0	0.725	811.0	-0.47975708502024295	-647.0	-243.0	0.10121457489878542	0.015292858235204161	-70.0	-1.1687785275375568	66.0	-0.0884102035660001	-140.0	
2020.0	0.0768829770711506	10.069250088067442	1249.0	2084.0	0.23829840984531334	0.0	9939.910888671875	63567.0	0.73	813.0	-0.4777327935222672	-646.0	-247.0	0.10931174089068826	-0.10705000764642914	-75.0	-1.0723681848107487	60.0	-0.010723681848107486	-132.0	
2018.0	0.10068530841201441	10.068530841201442	1249.0	2082.0	0.26261843376357064	0.0	9959.442138671875	64207.0	0.73	813.0	-0.4777327935222672	-646.0	-247.0	0.10931174089068826	0.015292858235204161	-66.0	-1.0604998338670901	59.0	-0.14870535126179507	-140.0	
2018.0	0.10068530841201441	10.068530841201442	1249.0	2082.0	0.26261843376357064	0.0	9978.973388671875	64847.0	0.73	813.0	-0.4777327935222672	-646.0	-247.0	0.10931174089068826	0.061171432940816645	-60.0	-1.0921756380249852	61.0	-0.24108901125212345	-143.0	
2016.0	0.10080480207601311	10.080480207601312	1248.0	2082.0	0.28695500157037673	0.0	9998.504638671875	65487.0	0.7225	810.0	-0.4777327935222672	-646.0	-247.0	0.10931174089068826	-0.09175714941122497	-75.0	-1.119121970415957	63.0	-0.011191219704159571	-133.0	
2017.0	0.05319652638527078	10.08155740043184	1248.0	2086.0	0.27445226989899557	0.0	10018.035888671875	591.0	0.7225	810.0	-0.4777327935222672	-646.0	-247.0	0.10931174089068826	0.061171432940816645	-59.0	-0.9228343895805918	50.0	-0.2547400824258044	-143.0	
2018.0	0.08878293840524426	10.068770031000618	1249.0	2083.0	0.2625041938594865	0.0	10037.567138671875	1231.0	0.7225	810.0	-0.4777327935222672	-646.0	-247.0	0.10931174089068826	0.09175714941122497	-65.0	-1.140308224262445	64.0	-0.1648479188238735	-145.0	
2019.0	0.08890604507825768	10.08108069830196	1248.0	2083.0	0.25070344550115914	0.0	10057.098388671875	1871.0	0.73	813.0	-0.4817813765182186	-648.0	-242.0	0.09919028340080972	0.030585716470408322	-71.0	-1.108020766940458	62.0	-0.0724581423019042	-141.0	
2019.0	0.05319893505794726	10.081798267699488	1248.0	2086.0	0.2503607257889066	0.0	10076.629638671875	2511.0	0.73	813.0	-0.4817813765182186	-648.0	-242.0	0.09919028340080972	0.29056430646887904	-70.0	-0.9644583330993303	52.0	-0.08636700162161784	-158.0	
2019.0	0.029394195044406976	10.08227664729784	1248.0	2088.0	0.25013224598073824	0.0	10096.160888671875	3151.0	0.73	813.0	-0.4817813765182186	-648.0	-242.0	0.09919028340080972	0.22939287352806242	-70.0	-1.038915274511491	57.0	-0.08711157103573945	-154.0	
2016.0	0.11221956273608251	10.031480083132061	1252.0	2081.0	0.2860891466875924	0.0	10115.692138671875	3791.0	0.73	813.0	-0.4817813765182186	-648.0	-242.0	0.09919028340080972	0.1529285823520416	-66.0	-1.096766133971327	61.0	-0.14906801426283744	-149.0	
2017.0	0.13675692110601215	10.104263539172644	1246.0	2079.0	0.27574199662101906	0.0	10135.223388671875	4431.0	0.7225	810.0	-0.4858299595141701	-650.0	-240.0	0.0951417004048583	0.1529285823520416	-70.0	-1.081999141132149	60.0	-0.08754240970194603	-149.0	
2018.0	0.10031960140198884	10.031960140198885	1252.0	2082.0	0.2618833626734193	0.0	10154.754638671875	5071.0	0.7225	810.0	-0.4858299595141701	-650.0	-240.0	0.0951417004048583	0.061171432940816645	-78.0	-1.0795566580966536	60.0	0.035237884393408185	-143.0	
2019.0	0.052955130384596885	10.057417800364451	1250.0	2086.0	0.24987067839547233	0.0	10174.285888671875	5711.0	0.7225	810.0	-0.4858299595141701	-650.0	-240.0	0.0951417004048583	0.22939287352806242	-82.0	-1.071517850062485	59.0	0.09669620710624949	-154.0	
2018.0	0.06522200306505435	10.093628877934007	1247.0	2085.0	0.2627657614447524	0.0	10193.817138671875	6351.0	0.7225	810.0	-0.4858299595141701	-650.0	-248.0	0.11133603238866396	-0.12234286588163329	-68.0	-1.101443946818645	62.0	-0.11842582507506079	-131.0	
2019.0	0.07663796806146199	10.04474918709858	1251.0	2084.0	0.24985413450692356	0.0	10213.348388671875	6991.0	0.7225	810.0	-0.4858299595141701	-650.0	-248.0	0.11133603238866396	0.1988071570576541	-73.0	-1.2842436296834927	73.0	-0.04353140361308474	-152.0	
2016.0	0.11282907441945846	10.092431251469655	1247.0	2081.0	0.28731426517117803	0.0	10232.879638671875	7631.0	0.7225	810.0	-0.4858299595141701	-650.0	-248.0	0.11133603238866396	-0.12234286588163329	-70.0	-1.086370094992203	61.0	-0.08758611924054656	-131.0	
2016.0	0.10056099740266274	10.056099740266275	1250.0	2082.0	0.2864649541769425	0.0	10252.410888671875	8271.0	0.7225	810.0	-0.4858299595141701	-650.0	-248.0	0.11133603238866396	-0.04587857470561248	-71.0	-0.9972975254240602	55.0	-0.07135090988674023	-136.0	
2018.0	0.06522200306505435	10.093628877934007	1247.0	2085.0	0.2627657614447524	0.0	10271.942138671875	8911.0	0.73	813.0	-0.49190283400809715	-653.0	-236.0	0.08704453441295547	0.015292858235204161	-64.0	-1.1217158181346485	63.0	-0.18000647842072046	-140.0	
2018.0	0.07688056839847413	10.069009220799794	1249.0	2084.0	0.26238995395540227	0.0	10291.473388671875	9551.0	0.73	813.0	-0.49190283400809715	-653.0	-236.0	0.08704453441295547	0.015292858235204161	-77.0	-1.0775682691107464	60.0	0.019913284625142344	-140.0	
2019.0	0.10093031742170303	10.093031742170302	1247.0	2082.0	0.25106270910196044	0.0	10311.004638671875	10191.0	0.73	813.0	-0.49190283400809715	-653.0	-236.0	0.08704453441295547	0.015292858235204161	-73.0	-1.1230966835773355	63.0	-0.04191993415202317	-140.0	
2019.0	0.10056461041167745	10.056461041167745	1250.0	2082.0	0.2503276380118091	0.0	10330.535888671875	10831.0	0.73	813.0	-0.5	-657.0	-239.0	0.0931174089068826	0.12234286588163329	-71.0	-1.096309975111303	61.0	-0.07234103438361265	-147.0	
2018.0	0.08890484074191946	10.080960264668136	1248.0	2083.0	0.2627492175562036	0.0	10350.067138671875	11471.0	0.73	813.0	-0.5	-657.0	-239.0	0.0931174089068826	-0.24468573176326658	-74.0	-1.1282327200951132	64.0	-0.026626810859076037	-123.0	
